aX,aY,aZ,gX,gY,gZ
0.995,0.062,1.772,129.089,-92.834,13.550
0.305,-0.811,2.161,160.278,-167.114,28.870
0.228,-0.684,1.710,73.181,-96.069,28.381
0.201,-0.303,1.516,-13.611,-17.517,9.460
0.188,-0.141,1.299,-58.167,16.846,9.460
0.122,-0.149,0.997,-68.848,28.381,22.034
0.060,-0.074,0.759,-65.796,27.222,20.142
0.013,-0.003,0.627,-52.795,18.982,11.047
0.003,0.027,0.549,-33.203,11.963,2.991
0.005,0.027,0.554,-13.123,5.615,-1.587
0.077,0.008,0.617,0.610,8.057,-2.441
0.170,-0.063,0.748,9.583,11.414,-1.221
0.268,-0.071,0.880,15.503,12.390,-3.174
0.332,-0.078,0.986,19.348,9.644,-4.333
0.351,-0.110,1.047,21.484,4.700,-3.601
0.359,-0.148,1.064,19.165,2.258,-2.380
0.339,-0.158,1.043,12.634,2.258,-0.427
0.308,-0.154,1.014,6.409,4.089,0.793
0.271,-0.150,0.981,2.625,6.226,1.587
0.232,-0.147,0.940,0.305,7.080,2.625
0.201,-0.161,0.908,-0.916,7.812,3.723
0.185,-0.166,0.889,-0.977,8.911,4.395
0.178,-0.159,0.884,-0.732,9.094,4.517
0.193,-0.160,0.892,0.183,8.179,3.662
0.216,-0.150,0.911,1.831,5.920,1.831
0.229,-0.152,0.923,4.089,2.075,-0.183
0.247,-0.145,0.935,5.432,-1.709,-1.831
0.279,-0.139,0.945,5.310,-4.150,-2.441
0.288,-0.125,0.944,4.761,-5.249,-1.282
0.297,-0.124,0.938,5.432,-5.615,0.366
0.269,-0.130,0.924,6.470,-6.104,2.625
0.246,-0.136,0.917,6.775,-4.456,4.272
0.228,-0.141,0.917,6.287,-1.526,5.554
0.222,-0.144,0.921,5.920,1.343,5.981
0.220,-0.151,0.925,5.920,2.991,5.371
0.222,-0.150,0.925,6.226,2.563,3.845
0.218,-0.153,0.916,6.409,0.854,2.258
0.217,-0.136,0.912,6.104,-0.488,0.916
0.231,-0.126,0.908,6.165,-1.953,0.000
0.242,-0.118,0.906,7.507,-4.150,-0.854
0.255,-0.122,0.927,8.850,-6.958,-0.916
0.257,-0.119,0.931,9.277,-9.094,-0.366
0.246,-0.115,0.935,8.667,-9.827,0.671
0.243,-0.122,0.947,8.240,-10.010,1.648
0.229,-0.140,0.961,8.179,-9.827,2.808
0.222,-0.156,0.960,8.240,-8.606,2.808
0.207,-0.160,0.955,7.935,-8.057,2.197
0.191,-0.160,0.938,7.324,-6.836,1.526
0.188,-0.153,0.936,6.409,-4.883,1.343
0.198,-0.151,0.939,6.042,-2.014,2.075
0.205,-0.163,0.951,5.554,0.122,3.479
0.194,-0.177,0.948,5.066,0.488,3.723
0.174,-0.161,0.935,4.272,0.732,2.380
0.175,-0.162,0.922,2.747,1.465,2.869
0.195,-0.159,0.919,2.014,2.991,2.258
0.223,-0.144,0.927,2.380,3.296,1.221
0.238,-0.147,0.935,3.357,0.671,0.977
0.218,-0.153,0.937,4.395,-3.601,1.526
0.214,-0.150,0.937,4.700,-4.517,1.404
0.212,-0.146,0.938,4.456,-4.517,1.587
0.202,-0.155,0.934,4.700,-3.784,2.380
0.190,-0.164,0.932,5.005,-2.258,2.563
0.188,-0.165,0.932,4.822,-0.122,2.014
0.192,-0.165,0.943,4.395,1.282,1.770
0.198,-0.170,0.947,3.967,2.686,1.709
0.198,-0.171,0.945,3.357,3.540,1.465
0.201,-0.168,0.937,2.502,3.845,0.916
0.207,-0.159,0.930,2.197,4.028,0.122
0.216,-0.152,0.925,2.258,4.150,-0.244
0.230,-0.147,0.927,3.052,3.723,-0.427
0.241,-0.144,0.929,4.028,1.465,-0.610
0.242,-0.137,0.928,4.333,-1.160,-0.244
0.239,-0.142,0.935,5.005,-3.235,0.854
0.220,-0.147,0.932,5.188,-4.089,1.343
0.212,-0.150,0.938,5.249,-3.906,1.709
0.208,-0.158,0.945,5.371,-3.235,2.441
0.199,-0.172,0.958,5.432,-2.747,2.747
0.185,-0.183,0.958,4.822,-2.136,2.991
0.166,-0.188,0.957,3.662,-1.099,2.747
0.166,-0.182,0.964,2.258,1.221,2.197
0.184,-0.177,0.982,0.244,4.150,2.075
0.206,-0.173,0.999,-2.258,6.592,2.869
0.240,-0.188,1.052,-4.272,7.996,3.662
0.281,-0.201,1.114,-7.812,9.277,4.395
0.319,-0.215,1.152,-15.320,10.925,6.714
0.327,-0.230,1.127,-26.062,11.658,10.681
0.298,-0.198,1.087,-35.461,10.254,14.587
0.242,-0.174,1.038,-39.978,8.667,15.564
0.231,-0.109,1.106,-39.063,9.521,15.137
0.339,-0.116,1.313,-35.706,11.597,16.296
0.438,-0.223,1.430,-30.273,3.601,19.714
0.454,-0.286,1.504,-30.212,-13.550,20.691
0.438,-0.289,1.577,-33.203,-31.860,17.090
0.402,-0.301,1.598,-37.659,-45.898,14.771
0.352,-0.304,1.621,-46.021,-54.321,15.320
0.329,-0.318,1.664,-56.458,-57.129,16.907
0.347,-0.316,1.710,-68.787,-56.702,19.653
0.328,-0.347,1.728,-82.581,-57.190,24.170
0.317,-0.348,1.723,-98.389,-58.716,28.931
0.281,-0.333,1.675,-114.258,-60.059,30.701
0.224,-0.333,1.587,-129.089,-60.974,29.297
0.215,-0.250,1.488,-142.212,-60.730,27.344
0.139,-0.233,1.426,-156.677,-61.157,24.536
0.090,-0.176,1.329,-169.006,-58.594,25.513
0.073,-0.142,1.215,-175.964,-48.218,29.114
0.052,-0.060,1.113,-182.922,-41.321,30.884
-0.033,-0.053,1.063,-185.913,-36.621,30.884
-0.032,0.005,0.986,-180.359,-27.161,31.921
-0.152,0.020,0.933,-173.340,-19.592,29.114
-0.091,0.033,1.002,-167.297,-10.498,27.832
-0.061,-0.006,1.009,-166.077,5.005,27.588
0.005,-0.022,0.999,-171.509,15.442,20.447
0.031,0.053,0.946,-179.382,15.564,10.925
-0.038,0.120,0.842,-183.899,9.644,5.676
-0.014,0.183,0.770,-183.594,9.888,3.601
0.003,0.164,0.704,-180.969,10.681,2.991
0.055,0.195,0.627,-181.824,13.428,1.831
0.022,0.252,0.563,-184.265,15.259,0.671
0.001,0.314,0.505,-186.890,22.156,0.305

0.651,-0.144,1.742,55.969,-33.875,17.761
0.378,-0.490,1.544,51.025,-60.120,23.499
0.149,-0.258,1.444,5.737,-53.345,16.907
0.042,-0.100,1.231,-27.039,-21.729,11.963
0.042,-0.041,1.044,-39.429,4.211,15.686
0.030,-0.044,0.881,-40.466,14.648,16.296
0.002,-0.006,0.759,-31.921,15.137,9.521
0.005,0.031,0.706,-19.592,14.526,1.404
0.044,0.044,0.699,-8.911,15.259,-2.747
0.078,0.023,0.716,0.366,16.418,-3.357
0.143,0.023,0.779,6.897,18.127,-3.235
0.200,-0.010,0.842,12.207,15.747,-3.174
0.204,-0.035,0.907,18.555,8.118,-3.906
0.200,-0.064,0.982,21.973,3.357,-5.249
0.204,-0.089,1.029,20.996,1.953,-5.066
0.212,-0.102,1.049,16.174,2.563,-4.028
0.227,-0.105,1.040,11.475,4.211,-3.357
0.228,-0.102,1.025,8.728,5.127,-2.991
0.209,-0.104,0.992,7.385,5.188,-2.136
0.187,-0.103,0.961,6.165,5.127,-0.549
0.174,-0.093,0.934,4.456,6.775,1.404
0.160,-0.093,0.910,3.052,8.179,3.601
0.153,-0.096,0.902,3.235,8.545,5.188
0.152,-0.102,0.907,4.333,7.935,5.920
0.158,-0.109,0.913,5.920,6.958,4.761
0.165,-0.111,0.926,8.301,4.883,2.441
0.171,-0.109,0.954,9.338,2.197,0.671
0.178,-0.110,0.973,8.911,1.221,0.000
0.181,-0.117,0.982,7.690,2.014,0.366
0.197,-0.114,0.986,5.615,3.296,1.038
0.216,-0.105,0.989,4.639,3.784,1.038
0.208,-0.100,0.981,4.700,2.686,1.099
0.188,-0.097,0.964,3.967,1.587,1.953
0.172,-0.093,0.952,2.502,2.686,2.625
0.169,-0.091,0.960,1.587,5.005,2.625
0.198,-0.101,0.975,0.732,6.897,2.075
0.215,-0.099,0.978,-0.671,5.737,2.075
0.212,-0.094,0.989,-1.404,2.319,2.319
0.212,-0.091,0.986,-1.587,0.732,1.953
0.206,-0.076,0.985,-2.747,0.366,1.526
0.207,-0.069,0.990,-3.906,0.854,1.770
0.210,-0.067,1.007,-4.395,1.648,1.770
0.213,-0.061,1.021,-5.310,1.587,2.136
0.217,-0.055,1.024,-6.775,1.221,3.174
0.223,-0.044,1.044,-6.165,0.427,4.578
0.276,-0.033,1.163,-1.648,-0.793,6.348
0.315,-0.075,1.311,3.723,-3.601,9.705
0.304,-0.170,1.458,5.493,-9.155,14.282
0.276,-0.254,1.597,3.113,-16.174,15.015
0.279,-0.289,1.687,-7.874,-17.883,13.428
0.307,-0.279,1.731,-25.330,-16.907,14.160
0.349,-0.262,1.749,-42.358,-15.991,17.273
0.398,-0.250,1.750,-55.908,-19.165,20.874
0.411,-0.240,1.738,-66.833,-27.588,23.743
0.380,-0.231,1.707,-76.233,-37.659,25.635
0.324,-0.217,1.651,-85.449,-46.509,26.733
0.247,-0.195,1.589,-94.299,-52.063,27.771
0.189,-0.182,1.520,-102.417,-54.321,28.503
0.161,-0.170,1.471,-110.168,-51.880,28.503
0.137,-0.158,1.438,-117.859,-47.058,28.076
0.160,-0.159,1.434,-125.732,-39.612,29.114
0.162,-0.158,1.435,-134.949,-29.663,32.349
0.148,-0.164,1.437,-145.081,-19.287,36.560
0.152,-0.176,1.422,-154.419,-10.681,39.978
0.198,-0.172,1.394,-162.781,-3.906,42.114
0.162,-0.185,1.398,-174.561,3.113,44.067
0.146,-0.112,1.323,-190.186,12.634,48.218
0.098,-0.109,1.233,-202.393,22.766,50.903
0.070,-0.073,1.104,-212.891,27.710,50.110
0.037,-0.034,0.955,-221.497,30.762,46.143
-0.014,-0.012,0.821,-226.013,34.363,40.039
-0.063,0.049,0.718,-228.577,42.419,35.095
-0.117,0.083,0.595,-233.826,57.739,30.151
-0.151,0.132,0.480,-238.159,78.003,27.710
-0.127,0.193,0.402,-239.746,102.173,26.550
-0.058,0.237,0.394,-238.342,131.409,26.611
0.024,0.282,0.432,-234.619,162.415,29.785
0.116,0.307,0.491,-230.652,189.087,34.302
0.222,0.370,0.540,-227.661,204.285,39.001
0.339,0.400,0.577,-224.426,203.979,41.504
0.453,0.444,0.597,-219.177,190.002,42.297
0.509,0.489,0.587,-212.769,166.321,43.457
0.512,0.510,0.526,-205.444,136.047,46.204
0.500,0.523,0.451,-195.984,103.210,49.377
0.430,0.488,0.378,-183.472,72.632,50.964
0.342,0.507,0.314,-172.302,49.744,51.025
0.333,0.532,0.255,-165.955,39.001,50.171
0.312,0.537,0.212,-157.593,34.912,49.561
0.272,0.560,0.200,-149.841,34.729,50.354
0.201,0.581,0.212,-147.766,40.039,54.382
0.146,0.602,0.179,-151.123,50.720,62.378
0.156,0.620,0.134,-157.349,61.951,70.740
0.193,0.652,0.067,-158.691,67.993,74.829
0.254,0.703,0.026,-152.466,59.387,70.496
0.305,0.723,0.034,-137.146,41.382,63.904
0.314,0.703,0.020,-119.202,15.137,58.960
0.234,0.672,0.012,-106.506,-17.334,57.312
0.132,0.653,-0.040,-99.915,-44.250,56.824
0.051,0.640,-0.099,-94.788,-57.251,54.626
-0.018,0.625,-0.125,-91.614,-58.044,51.025
-0.091,0.616,-0.163,-93.689,-48.584,48.401
-0.163,0.663,-0.207,-100.891,-32.593,48.340
-0.205,0.685,-0.244,-109.131,-13.855,50.598
-0.179,0.718,-0.266,-113.220,5.554,51.758
-0.100,0.735,-0.253,-112.793,21.301,50.598
-0.006,0.751,-0.244,-109.985,24.170,47.485
0.061,0.767,-0.271,-103.882,14.832,44.434
0.096,0.796,-0.306,-94.421,-3.601,43.579
0.094,0.814,-0.317,-84.900,-30.273,44.922
0.067,0.814,-0.297,-77.454,-55.603,45.532
0.038,0.811,-0.321,-73.792,-70.984,44.495
0.019,0.788,-0.381,-72.327,-79.041,43.701
-0.054,0.799,-0.440,-70.313,-85.388,41.992
-0.156,0.869,-0.528,-68.848,-85.510,40.161
-0.247,0.904,-0.645,-69.702,-74.524,42.725
-0.322,0.904,-0.705,-69.702,-57.434,46.204
-0.378,0.877,-0.738,-65.857,-38.818,48.157
-0.393,0.866,-0.770,-59.631,-22.095,46.753
-0.375,0.866,-0.759,-49.988,-11.475,42.419

1.115,0.121,1.874,107.056,-18.982,6.226
0.894,-0.221,1.755,77.026,-31.250,33.875
0.649,-0.195,1.471,11.963,-11.719,37.048
0.439,-0.051,1.179,-33.081,2.991,26.489
0.262,0.019,0.964,-45.715,8.789,16.418
0.179,0.056,0.791,-42.480,7.446,8.667
0.163,0.070,0.658,-30.151,5.005,0.610
0.195,0.074,0.600,-16.479,4.761,-6.470
0.257,0.096,0.616,-7.751,8.057,-11.536
0.378,0.142,0.655,-5.066,17.395,-12.695
0.492,0.170,0.712,-2.747,19.165,-8.362
0.529,0.128,0.744,4.883,10.498,-3.723
0.525,0.101,0.768,12.024,-1.038,-2.869
0.521,0.116,0.812,13.306,-5.310,-2.991
0.535,0.114,0.861,11.597,-3.662,-0.793
0.536,0.090,0.889,10.437,-0.488,3.174
0.528,0.072,0.901,8.179,1.221,5.066
0.506,0.061,0.898,6.775,1.099,5.371
0.470,0.054,0.883,5.859,-1.648,4.272
0.430,0.049,0.862,5.798,-2.502,3.662
0.405,0.044,0.850,4.883,0.061,3.906
0.408,0.045,0.850,3.418,3.784,4.700
0.422,0.048,0.852,1.648,5.615,5.554
0.419,0.048,0.855,0.793,5.493,5.005
0.432,0.054,0.853,0.366,4.944,3.418
0.453,0.067,0.851,-0.610,5.249,2.258
0.467,0.077,0.849,-1.770,5.310,1.770
0.475,0.089,0.840,-2.686,5.798,1.404
0.493,0.100,0.831,-4.028,7.446,1.831
0.499,0.110,0.823,-5.005,9.155,2.502
0.498,0.120,0.819,-5.005,10.559,3.601
0.490,0.120,0.816,-4.028,9.460,4.822
0.479,0.123,0.810,-2.197,6.653,4.944
0.461,0.119,0.802,-0.916,4.700,4.150
0.454,0.119,0.803,0.000,3.845,3.601
0.458,0.121,0.809,0.305,4.333,2.808
0.468,0.120,0.816,0.305,5.188,2.258
0.484,0.120,0.829,0.854,6.470,1.831
0.495,0.126,0.833,0.549,6.775,1.465
0.492,0.123,0.833,0.977,5.432,1.526
0.479,0.111,0.827,1.892,3.601,1.465
0.468,0.106,0.823,2.380,3.235,0.916
0.464,0.110,0.818,2.136,3.479,0.183
0.466,0.114,0.814,2.075,3.784,-0.183
0.479,0.115,0.811,2.319,3.662,0.000
0.487,0.116,0.817,2.869,3.235,0.549
0.489,0.116,0.825,3.845,2.686,1.526
0.480,0.107,0.833,4.150,2.014,2.808
0.471,0.095,0.838,3.967,2.380,4.089
0.473,0.090,0.845,3.113,3.296,4.456
0.468,0.089,0.848,2.319,3.723,4.150
0.460,0.089,0.845,2.136,3.845,3.723
0.458,0.087,0.838,2.197,3.357,2.991
0.456,0.096,0.830,2.014,2.869,2.502
0.452,0.107,0.823,1.587,4.211,2.380
0.468,0.114,0.819,1.160,6.226,2.686
0.473,0.113,0.822,1.099,7.263,4.089
0.479,0.107,0.828,1.343,7.507,4.700
0.478,0.104,0.835,1.831,7.080,4.822
0.478,0.105,0.838,1.770,6.653,4.517
0.472,0.107,0.837,1.404,5.676,3.845
0.470,0.107,0.831,1.038,4.761,3.418
0.469,0.109,0.824,0.610,4.395,2.869
0.476,0.115,0.819,0.549,4.517,2.502
0.488,0.114,0.819,0.732,4.456,2.197
0.497,0.114,0.819,1.648,3.662,2.014
0.492,0.115,0.820,2.502,2.563,1.709
0.485,0.116,0.814,2.686,2.319,1.770
0.484,0.110,0.815,2.869,3.174,2.502
0.486,0.102,0.822,2.747,3.479,2.502
0.480,0.106,0.824,3.845,2.991,1.526
0.477,0.109,0.822,4.028,1.953,1.221
0.479,0.103,0.820,4.089,1.770,1.831
0.484,0.102,0.820,4.150,2.197,2.075
0.492,0.105,0.822,3.357,2.625,2.502
0.497,0.101,0.828,3.418,2.991,3.113
0.497,0.094,0.840,3.967,3.113,3.479
0.503,0.090,0.860,4.211,2.869,3.723
0.528,0.089,0.878,4.028,2.197,3.540
0.561,0.087,0.896,3.906,-0.061,3.784
0.574,0.088,0.915,3.601,-3.479,4.211
0.569,0.113,0.939,2.502,-6.653,5.798
0.581,0.104,0.945,0.244,-10.376,8.362
0.601,0.101,0.971,-1.587,-15.381,10.193
0.632,0.110,1.016,-3.235,-20.691,10.803
0.688,0.119,1.103,-5.188,-24.292,13.000
0.733,0.105,1.231,-9.521,-29.053,18.372
0.752,0.050,1.354,-17.029,-33.447,25.940
0.811,0.012,1.434,-29.114,-34.241,32.166
0.826,0.038,1.481,-44.983,-35.156,37.048
0.849,0.067,1.463,-59.021,-38.269,41.443
0.844,0.094,1.470,-67.810,-45.837,45.715
0.815,0.105,1.461,-72.571,-54.688,49.255
0.786,0.109,1.441,-76.050,-65.308,51.270
0.744,0.118,1.417,-78.735,-75.989,50.720
0.722,0.135,1.393,-80.872,-84.717,49.133
0.690,0.162,1.380,-83.618,-91.736,48.950
0.633,0.172,1.375,-86.304,-96.558,51.208
0.577,0.169,1.340,-92.896,-97.778,55.481
0.529,0.168,1.300,-102.600,-96.130,61.279
0.465,0.188,1.270,-111.877,-91.370,66.833
0.425,0.190,1.234,-119.507,-85.510,69.641
0.397,0.212,1.184,-126.343,-79.834,70.313
0.357,0.243,1.115,-132.202,-75.378,69.641
0.304,0.275,1.072,-134.094,-75.684,67.993
0.248,0.271,1.013,-133.667,-66.101,68.359
0.235,0.249,1.005,-132.080,-52.124,62.988
0.257,0.269,1.005,-133.118,-44.556,55.420
0.264,0.278,0.965,-136.841,-41.138,51.025
0.242,0.320,0.922,-141.357,-40.527,50.659
0.248,0.346,0.880,-145.203,-35.095,53.894
0.257,0.345,0.866,-148.010,-29.663,58.167
0.256,0.328,0.847,-149.414,-25.696,60.486
0.238,0.324,0.812,-151.733,-25.635,59.509
0.217,0.337,0.764,-155.701,-28.442,57.251
0.179,0.371,0.698,-160.095,-28.381,55.786
0.140,0.398,0.610,-163.025,-24.963,53.894
0.129,0.431,0.547,-162.903,-19.592,52.124
0.142,0.445,0.522,-159.851,-14.709,50.293

-0.449,-0.814,1.449,31.982,-86.731,22.705
-0.349,-0.511,1.339,-13.550,-27.100,5.371
-0.136,-0.251,1.252,-33.142,23.682,-4.272
-0.069,-0.262,1.141,-37.903,46.204,0.977
-0.062,-0.298,1.031,-42.542,51.270,5.249
-0.029,-0.198,0.943,-44.678,53.650,2.441
-0.006,-0.130,0.836,-42.358,52.551,-1.038
0.061,-0.051,0.791,-37.537,45.410,-1.953
0.108,0.020,0.795,-28.076,34.668,1.160
0.104,-0.053,0.786,-13.184,17.761,4.333
0.021,-0.168,0.803,0.793,-2.441,4.761
-0.036,-0.186,0.813,7.263,-11.475,1.709
-0.050,-0.181,0.819,9.644,-8.545,-1.709
-0.026,-0.209,0.858,11.414,-1.587,-1.587
0.014,-0.241,0.916,11.414,6.226,0.854
0.045,-0.254,0.957,9.888,11.047,3.235
0.036,-0.260,0.971,6.775,10.803,5.554
0.004,-0.271,0.961,3.418,7.507,8.118
-0.036,-0.277,0.942,0.549,5.127,9.338
-0.057,-0.279,0.918,-1.831,5.066,8.789
-0.060,-0.269,0.900,-3.479,7.141,7.629
-0.047,-0.250,0.878,-4.089,9.216,6.104
-0.036,-0.241,0.883,-2.808,9.399,4.517
-0.026,-0.240,0.876,0.549,7.874,3.723
-0.037,-0.245,0.887,3.601,5.127,2.380
-0.027,-0.245,0.894,5.493,3.601,1.404
-0.022,-0.247,0.897,6.897,4.028,0.977
-0.020,-0.240,0.904,7.690,3.967,1.221
-0.018,-0.232,0.910,7.874,4.333,1.526
-0.006,-0.229,0.901,8.057,5.005,1.587
0.004,-0.222,0.904,9.094,4.822,1.282
0.020,-0.229,0.928,10.803,5.127,1.465
0.061,-0.242,0.960,11.597,3.967,2.625
0.075,-0.208,1.056,10.925,-1.526,4.639
0.060,-0.263,1.138,13.794,-9.705,6.165
-0.021,-0.339,1.098,12.146,-15.930,6.714
-0.069,-0.298,1.059,4.028,-14.038,4.089
-0.067,-0.250,1.019,-2.502,-5.066,0.488
-0.037,-0.224,0.989,-4.578,4.517,-0.549
-0.012,-0.218,0.959,-5.066,10.925,0.000
0.011,-0.189,0.924,-4.700,12.878,0.122
0.018,-0.176,0.935,-2.686,10.071,-0.488
0.033,-0.182,0.919,0.061,7.690,-0.183
0.016,-0.183,0.902,2.136,3.967,0.183
-0.003,-0.173,0.891,4.578,1.709,-0.122
0.008,-0.190,0.920,5.920,1.221,-0.488
0.036,-0.195,0.938,7.263,2.441,0.671
0.023,-0.198,0.944,8.179,1.526,2.441
0.013,-0.218,0.959,8.179,-0.610,3.235
0.008,-0.225,0.964,7.507,-1.404,3.418
0.004,-0.231,0.969,6.104,-0.916,3.235
0.004,-0.242,0.972,5.066,-0.549,3.052
-0.001,-0.240,0.966,4.028,-0.854,2.930
-0.011,-0.241,0.963,3.540,-1.343,2.930
0.001,-0.246,0.958,2.808,-1.221,3.174
-0.013,-0.239,0.947,1.526,-2.319,3.662
-0.041,-0.241,0.943,1.465,-2.869,3.540
-0.026,-0.246,0.943,2.380,-0.488,2.625
-0.030,-0.236,0.927,2.197,1.404,3.113
-0.029,-0.236,0.932,2.747,2.014,3.418
-0.018,-0.249,0.941,3.967,2.686,3.601
-0.028,-0.257,0.950,4.211,2.991,3.967
-0.032,-0.264,0.954,4.822,3.418,2.991
-0.029,-0.257,0.958,4.883,3.906,1.465
-0.023,-0.255,0.962,4.333,4.211,0.916
-0.016,-0.262,0.968,3.906,4.395,0.549
-0.004,-0.250,0.970,3.357,4.639,0.061
0.007,-0.233,0.971,2.014,4.517,0.916
0.009,-0.239,0.993,1.770,2.808,2.197
0.021,-0.238,1.003,3.174,0.854,2.136
0.031,-0.246,1.056,4.456,-2.502,1.099
0.042,-0.260,1.121,4.822,-5.920,0.122
0.068,-0.284,1.197,3.845,-9.460,-0.671
0.073,-0.310,1.301,1.465,-13.855,-0.610
0.046,-0.347,1.416,-2.869,-18.188,1.465
0.001,-0.398,1.502,-10.681,-19.714,4.700
-0.049,-0.447,1.570,-21.790,-17.212,7.080
-0.057,-0.491,1.611,-34.790,-11.780,8.423
-0.040,-0.517,1.625,-48.279,-7.019,7.874
-0.034,-0.513,1.620,-60.364,-6.165,5.371
-0.018,-0.498,1.608,-69.275,-8.545,1.953
-0.009,-0.479,1.624,-76.050,-14.832,-1.282
-0.022,-0.483,1.652,-83.496,-20.996,-2.930
-0.077,-0.503,1.653,-94.666,-25.757,-3.052
-0.117,-0.506,1.655,-109.131,-27.405,-3.601
-0.087,-0.489,1.640,-125.488,-25.024,-4.578
-0.026,-0.471,1.638,-142.029,-23.071,-4.150
0.016,-0.460,1.611,-158.142,-24.475,-1.831
0.005,-0.428,1.545,-174.500,-30.029,2.441
-0.052,-0.380,1.449,-187.744,-34.668,4.517
-0.128,-0.320,1.350,-197.632,-37.781,3.174
-0.111,-0.258,1.324,-205.261,-35.645,-0.122
-0.008,-0.232,1.327,-213.318,-29.846,-2.808
0.040,-0.197,1.300,-223.877,-26.855,-0.671
-0.003,-0.182,1.229,-230.896,-31.250,3.723
-0.019,-0.158,1.125,-229.919,-38.391,5.554
-0.065,-0.111,1.090,-226.013,-46.387,2.563
-0.175,-0.092,1.032,-225.281,-47.546,-1.404
-0.320,-0.087,0.988,-227.722,-40.344,-5.249
-0.394,-0.055,0.929,-231.812,-22.827,-13.184
-0.257,0.029,0.757,-235.535,0.366,-23.926
-0.145,0.146,0.679,-235.779,11.780,-32.104
-0.072,0.246,0.659,-230.530,13.123,-34.546
-0.022,0.277,0.652,-222.046,12.085,-30.273
-0.014,0.286,0.645,-215.637,11.963,-22.583
0.017,0.295,0.639,-212.219,11.047,-16.418
0.061,0.305,0.585,-209.656,6.897,-13.428
0.045,0.354,0.523,-204.529,-5.493,-12.695
0.058,0.402,0.462,-195.251,-19.836,-13.977
0.032,0.436,0.427,-183.350,-32.349,-13.794
-0.067,0.424,0.435,-171.265,-41.992,-10.803
-0.194,0.404,0.424,-163.391,-41.077,-8.301
-0.257,0.390,0.400,-164.062,-26.306,-8.423
-0.195,0.406,0.340,-169.189,-3.967,-11.780
-0.111,0.489,0.296,-172.363,12.695,-14.832
-0.015,0.561,0.284,-170.044,26.245,-12.695
0.007,0.575,0.326,-162.354,35.156,-8.667
0.053,0.543,0.355,-155.151,38.269,-3.662
0.080,0.538,0.335,-151.672,29.907,-0.488

0.374,-0.372,2.165,-48.706,-19.836,9.155
0.363,-0.402,2.298,-66.528,-31.677,14.526
0.296,-0.459,2.361,-85.815,-42.358,18.555
0.183,-0.457,2.329,-108.154,-51.941,18.921
0.091,-0.407,2.214,-132.446,-59.753,13.977
0.076,-0.361,2.079,-153.625,-66.406,5.554
0.077,-0.310,1.957,-169.922,-73.242,-2.197
0.084,-0.278,1.863,-180.481,-81.055,-9.338
0.096,-0.245,1.764,-187.439,-89.905,-16.968
0.068,-0.210,1.681,-194.092,-99.426,-23.499
0.037,-0.179,1.599,-200.928,-105.286,-27.100
0.009,-0.166,1.553,-206.055,-104.736,-27.954
-0.001,-0.203,1.523,-208.618,-98.633,-27.771
-0.039,-0.160,1.539,-211.853,-86.975,-23.804
-0.031,-0.210,1.609,-219.543,-70.313,-21.057
0.021,-0.245,1.643,-233.093,-54.810,-16.235
0.027,-0.258,1.621,-249.390,-47.302,-14.771
0.022,-0.247,1.523,-263.184,-51.392,-17.761
-0.050,-0.278,1.432,-272.827,-66.284,-25.757
-0.087,-0.242,1.298,-277.405,-79.651,-36.865
-0.051,-0.239,1.176,-278.015,-86.853,-48.523
-0.036,-0.216,1.019,-280.640,-89.355,-55.908
-0.053,-0.217,0.834,-286.377,-80.750,-57.983
-0.116,-0.192,0.633,-294.067,-61.584,-58.533
-0.099,-0.139,0.479,-300.171,-36.011,-59.814
-0.062,-0.092,0.394,-302.368,-10.864,-60.364
-0.030,-0.057,0.341,-302.246,10.437,-57.556
0.033,-0.045,0.295,-302.368,30.334,-50.354
-0.015,-0.065,0.148,-303.589,45.410,-41.870
0.109,-0.095,0.055,-304.504,52.368,-36.682
0.118,-0.057,-0.061,-302.979,42.908,-35.217
0.093,0.013,-0.180,-297.363,23.437,-35.095
0.034,0.047,-0.267,-289.429,6.592,-35.767
0.031,0.070,-0.365,-278.625,1.282,-37.231
0.110,0.135,-0.479,-269.531,0.488,-37.292
0.164,0.214,-0.543,-258.728,-4.761,-34.363
0.112,0.276,-0.591,-243.652,-12.390,-27.893
0.042,0.306,-0.624,-227.112,-16.602,-18.555
-0.058,0.293,-0.653,-211.731,-15.442,-10.498
-0.138,0.278,-0.716,-201.355,-9.338,-8.057
-0.175,0.299,-0.795,-194.031,-0.549,-9.644
-0.184,0.336,-0.883,-185.547,7.751,-12.878
-0.146,0.360,-0.953,-174.561,14.282,-16.052
-0.068,0.392,-1.026,-162.598,19.287,-16.724
0.015,0.477,-1.103,-151.001,18.677,-15.137
0.076,0.547,-1.187,-137.512,11.475,-11.536
0.116,0.598,-1.286,-120.605,-3.479,-5.310
0.098,0.644,-1.374,-101.013,-26.306,0.793
0.055,0.652,-1.456,-79.834,-48.401,6.226
-0.036,0.667,-1.485,-56.641,-65.430,8.179
-0.097,0.694,-1.460,-34.363,-67.688,7.874
-0.143,0.727,-1.410,-16.663,-54.016,6.592
-0.176,0.752,-1.320,-3.845,-30.579,5.005
-0.183,0.769,-1.207,7.385,-3.357,4.639
-0.132,0.780,-1.090,18.250,20.691,4.456
-0.085,0.791,-0.963,28.564,36.133,4.089
-0.068,0.789,-0.845,39.856,42.786,2.991
-0.048,0.797,-0.736,49.988,43.091,1.709
-0.028,0.802,-0.635,57.739,40.222,0.549
0.008,0.813,-0.583,63.477,35.461,0.061
0.053,0.849,-0.570,68.054,26.611,0.244
0.070,0.868,-0.568,74.158,10.803,1.648
0.050,0.857,-0.594,81.848,-5.798,4.944
0.010,0.860,-0.641,88.074,-19.653,8.850
-0.052,0.857,-0.679,92.468,-30.640,12.207
-0.112,0.850,-0.707,97.290,-34.668,14.465
-0.148,0.838,-0.738,102.478,-29.724,15.015
-0.160,0.810,-0.727,108.032,-21.667,14.221
-0.139,0.771,-0.703,112.427,-10.925,12.817
-0.089,0.736,-0.699,115.723,0.183,11.841
-0.044,0.742,-0.688,119.019,6.409,11.230
-0.014,0.746,-0.685,124.329,9.827,11.414
0.012,0.739,-0.684,132.507,12.878,13.123
0.025,0.725,-0.664,142.517,13.611,16.174
0.037,0.688,-0.634,152.527,13.245,19.043
0.033,0.680,-0.608,162.292,11.841,22.583
0.011,0.646,-0.552,173.340,7.324,25.391
-0.017,0.596,-0.485,184.204,2.563,28.503
-0.040,0.556,-0.441,192.932,1.465,30.396
-0.068,0.548,-0.386,200.439,1.038,30.640
-0.130,0.498,-0.313,208.191,1.953,30.273
-0.100,0.460,-0.232,214.600,9.094,28.992
-0.058,0.450,-0.167,217.163,18.860,28.931
0.042,0.437,-0.112,218.872,23.621,28.931
0.107,0.426,-0.051,222.900,17.822,29.419
0.151,0.405,-0.002,231.140,3.662,30.029
0.151,0.364,0.049,244.568,-16.663,31.677
0.096,0.312,0.098,259.399,-37.109,34.973
0.021,0.251,0.141,271.362,-49.683,40.161
-0.070,0.211,0.190,279.236,-51.147,46.387
-0.125,0.175,0.229,283.691,-41.016,50.842
-0.211,0.136,0.331,289.612,-23.254,53.650
-0.302,0.052,0.543,295.166,0.610,55.481
-0.280,-0.084,0.805,291.748,34.363,57.129
-0.112,-0.188,1.025,278.992,65.491,57.312
-0.008,-0.307,1.232,260.071,80.078,55.969
-0.020,-0.324,1.330,236.938,80.933,56.885
-0.091,-0.274,1.362,213.562,76.538,57.129
-0.161,-0.236,1.342,196.716,75.134,51.025
-0.195,-0.183,1.293,184.570,80.139,40.955
-0.203,-0.119,1.262,176.270,86.304,30.273
-0.146,-0.058,1.200,172.424,93.933,20.020
-0.045,-0.008,1.136,172.546,98.022,11.902
-0.023,-0.012,1.093,180.298,94.849,7.324
-0.031,-0.067,1.105,194.458,88.989,4.028
-0.019,-0.125,1.143,206.726,85.999,2.441
-0.006,-0.214,1.204,212.830,88.135,1.526
0.010,-0.289,1.285,211.792,91.675,0.305
0.020,-0.333,1.386,204.773,98.267,-0.671
0.159,-0.361,1.523,190.918,105.835,-3.113
0.244,-0.278,1.560,165.710,99.548,-3.784
0.263,-0.209,1.483,134.399,86.914,2.686
0.225,-0.183,1.343,110.168,72.144,9.888
0.223,-0.176,1.192,96.558,60.608,11.353
0.244,-0.144,1.085,90.332,51.697,9.155
0.235,-0.144,1.027,93.567,45.471,8.179
0.211,-0.186,1.045,105.408,39.368,7.385
0.174,-0.216,1.111,118.652,32.410,6.226
0.142,-0.249,1.233,129.700,25.269,5.493

0.204,-0.538,2.042,88.440,31.433,-2.869
0.180,-0.504,1.965,57.434,24.231,-6.104
0.170,-0.430,1.788,25.757,21.973,-8.545
0.185,-0.325,1.589,1.831,22.583,-10.254
0.232,-0.232,1.411,-11.780,26.001,-10.620
0.297,-0.113,1.269,-16.113,26.489,-9.216
0.690,0.153,1.778,-2.380,12.207,-4.578
0.500,-0.278,1.649,23.437,-29.602,7.202
0.227,-0.416,1.528,15.442,-58.899,9.705
0.085,-0.230,1.362,-10.071,-52.246,3.967
0.075,-0.060,1.207,-30.762,-15.808,-1.953
0.137,0.026,1.097,-41.077,13.306,3.235
0.146,0.020,1.012,-42.053,23.682,10.803
0.128,0.005,0.922,-38.086,22.034,12.146
0.098,0.026,0.841,-32.471,13.733,8.789
0.083,0.052,0.794,-24.353,5.859,3.296
0.110,0.091,0.816,-14.404,1.770,-0.916
0.137,0.068,0.825,-5.859,-0.366,-0.854
0.123,0.003,0.837,1.343,-3.784,0.061
0.140,-0.031,0.888,6.531,-4.578,-1.770
0.224,-0.020,0.952,7.568,-2.075,-2.563
0.235,-0.024,1.026,6.958,-3.845,0.977
0.218,-0.070,1.128,7.568,-6.348,7.202
0.199,-0.143,1.237,6.165,-8.606,12.817
0.176,-0.191,1.298,1.404,-9.460,14.954
0.149,-0.188,1.323,-5.310,-11.780,14.282
0.138,-0.181,1.329,-12.085,-13.000,13.489
0.142,-0.190,1.326,-17.517,-12.695,13.062
0.153,-0.197,1.338,-20.996,-13.733,12.695
0.145,-0.202,1.376,-23.926,-17.151,12.146
0.155,-0.223,1.444,-27.222,-18.860,12.146
0.180,-0.252,1.534,-31.555,-20.142,12.817
0.181,-0.285,1.637,-38.818,-24.231,14.465
0.152,-0.317,1.741,-51.270,-27.039,17.151
0.141,-0.358,1.803,-67.993,-29.053,20.691
0.150,-0.385,1.849,-87.952,-31.250,22.766
0.203,-0.391,1.863,-107.056,-32.349,23.987
0.244,-0.358,1.858,-125.977,-37.415,24.414
0.219,-0.305,1.838,-141.724,-46.265,26.428
0.211,-0.279,1.820,-154.358,-56.274,28.137
0.187,-0.265,1.793,-167.114,-66.711,29.541
0.148,-0.267,1.740,-180.908,-76.416,30.090
0.108,-0.238,1.632,-194.763,-82.092,29.053
0.090,-0.194,1.491,-207.581,-87.036,26.245
0.058,-0.119,1.349,-216.614,-89.478,24.780
0.040,-0.025,1.238,-221.802,-88.318,24.658
-0.034,0.026,1.177,-222.717,-79.529,25.574
-0.128,0.041,1.138,-222.351,-61.462,28.015
-0.149,0.062,1.108,-222.412,-39.734,27.893
-0.182,0.067,1.154,-224.304,-21.729,23.926
-0.152,0.096,1.135,-226.074,-8.606,17.761
-0.126,0.102,1.051,-226.624,-5.066,10.254
-0.122,0.154,0.934,-227.295,-11.047,3.052
-0.121,0.201,0.817,-226.318,-20.325,-3.418
-0.060,0.219,0.697,-225.098,-26.306,-7.935
-0.040,0.277,0.603,-223.328,-28.198,-9.521
-0.045,0.316,0.536,-219.421,-27.039,-8.423
-0.024,0.328,0.454,-213.257,-24.231,-5.615
0.046,0.364,0.390,-207.031,-22.339,-3.418
0.141,0.393,0.359,-198.669,-21.606,-1.465
0.202,0.390,0.413,-188.416,-24.109,3.845
0.042,0.384,0.352,-181.274,-35.706,12.695
-0.070,0.348,0.333,-176.147,-43.152,13.977
-0.076,0.368,0.275,-173.584,-39.063,9.216
-0.073,0.410,0.278,-172.974,-33.813,5.859
-0.076,0.414,0.233,-172.791,-26.855,4.761
-0.107,0.430,0.200,-171.692,-23.193,3.723
-0.075,0.418,0.185,-171.082,-18.616,4.456
-0.069,0.430,0.133,-170.593,-13.916,3.174
-0.039,0.482,0.084,-168.701,-15.198,0.793
-0.030,0.530,0.068,-164.856,-25.696,-0.549
-0.056,0.543,0.057,-157.227,-35.828,-1.404
-0.060,0.541,0.038,-149.353,-41.077,-0.183
-0.129,0.548,0.026,-145.142,-42.786,2.869
-0.230,0.537,0.017,-142.578,-38.452,5.310
-0.307,0.520,-0.006,-140.991,-26.489,4.944
-0.330,0.521,-0.021,-142.029,-13.123,1.038
-0.303,0.522,-0.031,-143.372,-1.892,-3.723
-0.229,0.526,-0.056,-143.494,7.935,-8.301
-0.138,0.582,-0.083,-142.090,12.207,-12.085
-0.098,0.626,-0.094,-138.489,9.460,-13.062
-0.080,0.628,-0.109,-132.446,0.488,-12.268
-0.077,0.650,-0.191,-127.747,-11.475,-12.085
-0.054,0.671,-0.244,-123.413,-27.527,-13.306
-0.053,0.725,-0.292,-118.408,-40.405,-14.526
-0.056,0.773,-0.325,-111.694,-45.532,-14.648
-0.097,0.801,-0.368,-103.821,-45.715,-11.108
-0.146,0.774,-0.373,-96.985,-43.518,-6.958
-0.176,0.736,-0.378,-91.370,-35.767,-5.127
-0.212,0.699,-0.360,-88.928,-23.132,-6.775
-0.207,0.690,-0.409,-92.712,-6.409,-9.705
-0.151,0.734,-0.463,-98.389,9.827,-13.611
-0.012,0.805,-0.538,-100.403,22.461,-18.005
0.141,0.906,-0.629,-95.764,21.606,-20.142
0.156,0.960,-0.679,-83.069,2.869,-17.761
0.082,0.947,-0.737,-68.481,-18.921,-11.780
0.024,0.915,-0.829,-55.847,-32.166,-5.981
-0.027,0.907,-0.901,-44.861,-37.476,-3.052
-0.086,0.906,-0.927,-34.912,-36.682,-0.427
-0.134,0.891,-0.953,-26.794,-27.283,3.174
-0.181,0.883,-0.965,-20.081,-11.597,7.080
-0.224,0.869,-0.930,-14.526,6.042,10.925
-0.242,0.839,-0.895,-9.888,25.146,13.062
-0.246,0.821,-0.849,-5.432,37.842,11.536
-0.232,0.828,-0.810,-0.854,44.373,7.019
-0.186,0.856,-0.771,4.456,46.326,2.380
-0.134,0.880,-0.737,10.559,42.358,-0.854
-0.121,0.897,-0.711,19.287,31.189,-3.052
-0.132,0.897,-0.670,30.396,18.372,-4.150
-0.137,0.889,-0.629,40.344,9.827,-4.272
-0.133,0.886,-0.603,47.607,6.165,-2.930
-0.160,0.885,-0.599,53.711,3.357,-0.366
-0.192,0.882,-0.581,60.364,1.892,2.075
-0.209,0.878,-0.550,65.186,3.845,3.723
-0.222,0.845,-0.544,68.848,7.812,4.211
-0.222,0.819,-0.539,72.205,10.315,2.625
-0.219,0.811,-0.551,75.134,10.620,-0.366
-0.209,0.814,-0.574,78.064,10.803,-3.174
-0.195,0.820,-0.614,81.543,10.315,-5.493

0.333,0.281,1.687,60.364,-26.978,30.640
-0.104,-0.039,1.597,59.814,-65.063,42.419
-0.311,-0.004,1.558,34.302,-64.148,35.400
-0.249,0.133,1.453,5.066,-25.085,20.020
-0.181,0.211,1.359,-14.404,5.859,12.085
-0.149,0.198,1.261,-21.423,15.137,10.315
-0.143,0.178,1.144,-23.254,17.273,7.202
-0.117,0.182,1.063,-23.315,19.653,3.174
-0.056,0.220,1.063,-22.339,26.978,0.488
0.072,0.299,1.164,-21.240,36.682,0.549
0.260,0.382,1.420,-17.456,36.377,6.104
0.334,0.271,1.655,-9.521,15.015,16.724
0.236,0.122,1.838,-6.348,-17.883,25.085
0.094,0.089,2.006,-14.954,-40.771,26.917
0.003,0.107,2.169,-31.189,-45.471,26.245
0.001,0.083,2.261,-51.941,-38.635,25.879
0.058,0.073,2.279,-74.036,-34.241,24.048
0.075,0.086,2.229,-93.079,-40.588,19.653
0.025,0.093,2.135,-107.422,-53.040,15.015
-0.055,0.108,2.015,-120.239,-61.401,11.169
-0.071,0.117,1.911,-133.179,-62.927,7.812
-0.055,0.111,1.881,-144.958,-59.204,5.859
-0.024,0.098,1.877,-156.433,-48.950,6.165
0.029,0.087,1.886,-169.067,-37.415,7.629
0.091,0.095,1.848,-181.396,-32.898,10.498
0.088,0.119,1.813,-187.744,-39.734,13.367
0.054,0.108,1.792,-190.613,-54.260,15.015
0.012,0.034,1.816,-193.848,-69.702,14.465
-0.053,-0.067,1.759,-200.439,-75.867,10.193
-0.077,-0.104,1.633,-212.097,-75.073,0.122
-0.130,-0.126,1.448,-227.661,-73.181,-10.864
-0.140,-0.138,1.243,-242.187,-71.228,-21.545
-0.076,-0.128,0.996,-253.601,-63.477,-29.663
-0.007,-0.057,0.765,-261.597,-49.500,-34.058
0.022,-0.010,0.644,-264.587,-34.180,-33.081
0.047,-0.013,0.563,-263.611,-19.348,-26.550
0.088,-0.049,0.471,-260.742,-8.057,-19.714
0.092,-0.049,0.348,-258.179,-6.470,-17.395
0.080,-0.033,0.254,-256.226,-14.648,-19.470
0.048,-0.007,0.155,-253.967,-28.748,-20.752
0.007,-0.014,0.025,-250.671,-43.701,-20.325
0.076,-0.022,-0.073,-246.155,-52.551,-21.057
-0.014,-0.012,-0.143,-240.540,-62.134,-22.766
-0.096,0.036,-0.203,-234.863,-63.293,-25.024
-0.162,0.063,-0.276,-231.873,-50.537,-25.208
-0.152,0.119,-0.379,-226.929,-29.236,-25.146
-0.091,0.151,-0.422,-219.055,-13.245,-24.048
-0.004,0.192,-0.448,-209.900,-6.042,-21.973
0.064,0.277,-0.492,-200.684,-8.179,-19.531
0.041,0.359,-0.507,-188.721,-20.569,-16.541
-0.019,0.384,-0.524,-172.607,-37.415,-13.611
-0.087,0.405,-0.573,-155.396,-50.232,-11.475
-0.169,0.412,-0.624,-141.235,-55.237,-12.756
-0.182,0.408,-0.658,-131.775,-51.514,-17.212
-0.179,0.416,-0.686,-126.404,-41.687,-22.522
-0.170,0.430,-0.730,-123.047,-29.602,-26.611
-0.138,0.466,-0.790,-121.826,-16.907,-28.564
-0.096,0.534,-0.864,-121.277,-3.540,-28.564
-0.008,0.654,-0.952,-117.737,8.545,-27.649
0.034,0.742,-0.990,-109.558,12.146,-24.048
0.088,0.782,-1.025,-96.680,8.911,-17.151
0.079,0.772,-1.070,-79.041,-1.953,-10.132
0.021,0.760,-1.094,-60.181,-21.240,-6.897
-0.048,0.758,-1.157,-43.030,-35.095,-6.348
-0.115,0.774,-1.225,-28.137,-37.170,-7.446
-0.172,0.797,-1.245,-15.381,-26.672,-8.728
-0.173,0.801,-1.244,-4.272,-4.761,-9.583
-0.130,0.805,-1.220,5.737,21.851,-9.277
-0.085,0.797,-1.163,15.991,43.396,-7.812
0.028,0.781,-1.103,27.405,58.289,-6.165
0.130,0.786,-1.050,38.147,60.425,-4.944
0.147,0.805,-1.022,49.255,44.922,-3.845
0.099,0.835,-0.970,62.073,20.569,-1.587
0.054,0.832,-0.918,75.867,0.244,2.991
-0.028,0.828,-0.860,88.379,-12.329,8.423
-0.120,0.807,-0.813,98.755,-16.907,12.146
-0.175,0.791,-0.761,107.483,-14.587,14.160
-0.223,0.760,-0.706,114.136,-6.958,14.771
-0.263,0.737,-0.654,119.080,5.005,14.587
-0.256,0.728,-0.596,122.009,21.606,12.939
-0.211,0.711,-0.548,124.268,37.842,9.766
-0.168,0.700,-0.506,127.197,49.438,6.470
-0.119,0.701,-0.468,131.531,55.298,3.723
-0.074,0.686,-0.439,137.451,56.641,2.625
-0.020,0.678,-0.396,143.372,53.406,2.563
0.054,0.656,-0.362,148.010,45.349,4.456
0.062,0.620,-0.307,152.039,28.137,8.545
0.009,0.612,-0.302,157.593,10.071,12.817
-0.040,0.630,-0.281,164.368,1.160,16.907
-0.089,0.649,-0.233,169.189,2.747,20.874
-0.087,0.588,-0.156,176.270,9.583,22.461
-0.100,0.524,-0.022,185.608,12.024,21.790
-0.102,0.467,0.085,189.758,14.587,21.606
-0.059,0.455,0.157,189.514,16.907,20.020
-0.090,0.456,0.240,189.026,13.855,16.663
-0.158,0.410,0.335,190.979,7.446,13.672
-0.199,0.341,0.364,190.063,6.042,10.071
-0.169,0.308,0.355,184.082,11.475,3.845
-0.059,0.375,0.327,177.246,21.790,-2.319
0.059,0.431,0.354,175.537,32.104,-3.845
0.070,0.446,0.420,179.443,38.513,1.709
0.137,0.414,0.472,184.021,41.077,8.972
0.159,0.419,0.573,189.514,34.241,14.587
0.075,0.387,0.697,196.899,21.912,19.287
-0.055,0.282,0.811,203.064,11.841,21.423
-0.122,0.195,0.902,202.576,7.568,19.714
-0.134,0.153,0.957,194.519,9.460,11.597
-0.041,0.150,0.982,183.838,15.259,0.671
0.115,0.196,1.000,174.500,20.874,-4.395
0.195,0.287,1.033,166.931,22.034,-1.404
0.144,0.328,1.070,164.062,21.790,9.338
0.044,0.281,1.134,167.053,20.447,20.020
-0.027,0.216,1.199,169.006,19.958,25.024
-0.082,0.201,1.218,165.955,22.583,24.048
-0.115,0.200,1.204,160.950,27.588,20.386
-0.114,0.198,1.170,155.884,34.790,17.273
0.010,0.223,1.137,150.818,42.969,14.160
0.030,0.235,1.114,150.085,49.744,12.085
0.090,0.200,1.106,157.349,53.223,10.376

0.288,-0.170,2.079,-69.702,-42.786,25.818
0.235,-0.191,2.126,-80.811,-52.612,23.254
0.212,-0.225,2.114,-94.116,-60.181,19.470
0.224,-0.228,2.085,-107.849,-67.261,13.977
0.244,-0.212,2.072,-118.958,-76.477,7.629
0.250,-0.199,2.067,-127.686,-86.304,2.991
0.220,-0.206,2.082,-137.207,-95.581,2.441
0.178,-0.240,2.060,-148.926,-103.638,3.601
0.149,-0.245,1.980,-164.368,-111.145,3.357
0.103,-0.203,1.910,-179.138,-117.859,0.977
0.035,-0.187,1.827,-191.956,-120.544,-1.648
0.018,-0.183,1.735,-205.139,-115.845,-4.089
0.001,-0.163,1.632,-218.994,-110.107,-6.714
0.001,-0.142,1.516,-230.225,-106.323,-11.597
0.037,-0.137,1.417,-236.938,-106.995,-17.883
0.042,-0.124,1.307,-241.089,-107.849,-21.912
0.011,-0.116,1.213,-244.934,-109.436,-24.719
-0.045,-0.130,1.092,-250.793,-108.521,-27.588
-0.048,-0.139,0.902,-258.118,-101.746,-33.264
-0.044,-0.091,0.714,-264.465,-93.628,-40.100
-0.003,-0.021,0.557,-267.822,-83.984,-45.105
0.065,0.029,0.414,-267.334,-73.608,-46.631
0.088,0.038,0.311,-262.512,-69.458,-44.250
0.031,0.041,0.243,-254.639,-67.139,-40.466
-0.030,0.037,0.179,-248.535,-61.340,-38.452
-0.017,0.020,0.131,-245.972,-51.575,-37.964
0.038,0.035,0.074,-245.911,-41.748,-38.330
0.129,0.069,0.030,-246.582,-34.485,-38.025
0.186,0.150,-0.101,-245.544,-30.701,-35.950
0.166,0.206,-0.167,-239.197,-38.086,-32.776
0.144,0.230,-0.219,-231.018,-45.532,-26.550
0.090,0.254,-0.290,-223.083,-45.959,-21.790
0.037,0.276,-0.329,-213.440,-45.410,-20.752
0.013,0.289,-0.319,-205.322,-44.495,-20.996
-0.033,0.282,-0.332,-198.608,-40.527,-21.851
-0.088,0.270,-0.361,-193.298,-36.804,-23.010
-0.120,0.301,-0.396,-190.308,-30.273,-23.682
-0.136,0.349,-0.462,-188.660,-19.714,-24.780
-0.061,0.418,-0.563,-185.913,-8.545,-26.611
0.023,0.500,-0.645,-178.345,-6.958,-27.588
0.055,0.548,-0.638,-163.330,-16.846,-26.917
0.037,0.584,-0.638,-146.545,-28.076,-22.583
-0.008,0.598,-0.666,-133.240,-35.156,-16.541
-0.075,0.610,-0.687,-124.207,-36.194,-10.803
-0.174,0.620,-0.703,-116.943,-32.410,-7.263
-0.229,0.591,-0.737,-110.168,-23.315,-6.897
-0.274,0.571,-0.761,-104.126,-12.207,-10.498
-0.235,0.604,-0.796,-99.915,0.732,-17.334
-0.128,0.661,-0.852,-95.825,14.648,-24.109
-0.034,0.737,-0.899,-88.257,20.630,-27.771
0.042,0.785,-0.922,-75.317,17.822,-27.893
0.063,0.792,-0.949,-59.692,8.545,-25.085
0.043,0.796,-0.978,-45.532,-5.127,-21.973
0.013,0.808,-0.976,-32.532,-16.968,-19.775
-0.007,0.833,-0.954,-21.362,-20.264,-17.517
-0.031,0.871,-0.931,-13.123,-15.015,-14.160
-0.046,0.891,-0.879,-5.127,-6.165,-9.705
-0.053,0.898,-0.824,2.319,6.042,-5.188
-0.036,0.907,-0.768,9.155,18.250,-2.441
-0.002,0.906,-0.714,16.235,27.283,-0.549
0.028,0.915,-0.659,23.193,31.494,0.671
0.034,0.919,-0.634,30.151,29.358,1.587
0.012,0.916,-0.587,36.499,22.583,2.319
0.001,0.918,-0.563,40.894,18.127,2.869
-0.013,0.929,-0.572,44.250,15.808,2.808
-0.037,0.939,-0.588,48.401,12.512,3.540
-0.072,0.926,-0.602,53.162,10.193,5.249
-0.082,0.909,-0.611,56.885,10.193,7.141
-0.073,0.895,-0.609,59.692,9.521,8.606
-0.070,0.897,-0.632,63.354,9.399,9.521
-0.045,0.904,-0.657,68.420,9.277,10.193
-0.036,0.897,-0.664,73.425,7.568,12.695
-0.037,0.876,-0.662,79.285,6.653,15.930
-0.025,0.859,-0.660,86.121,8.484,18.005
-0.055,0.842,-0.628,93.567,8.301,19.775
-0.087,0.803,-0.590,101.074,8.179,20.935
-0.108,0.769,-0.550,107.605,10.193,19.836
-0.091,0.753,-0.515,113.037,13.611,17.822
-0.076,0.753,-0.492,118.652,16.296,16.724
-0.085,0.750,-0.455,125.061,18.616,17.334
-0.092,0.733,-0.436,130.493,22.827,19.348
-0.106,0.720,-0.394,135.620,25.330,20.874
-0.126,0.704,-0.343,140.808,27.283,20.752
-0.123,0.701,-0.299,145.081,31.616,19.836
-0.085,0.700,-0.253,148.437,35.339,19.165
-0.026,0.694,-0.223,152.832,36.377,19.165
0.020,0.667,-0.172,158.752,31.250,21.240
0.027,0.657,-0.125,163.879,22.400,25.269
-0.005,0.627,-0.089,170.959,14.832,29.602
-0.045,0.607,-0.036,178.345,9.460,32.776
-0.104,0.583,0.024,184.082,4.944,33.752
-0.168,0.553,0.087,189.453,3.052,33.142
-0.201,0.522,0.158,192.871,6.592,31.433
-0.195,0.498,0.260,192.932,16.418,28.992
-0.165,0.476,0.327,189.209,30.090,27.649
-0.135,0.464,0.382,183.777,42.053,26.001
-0.129,0.435,0.430,178.467,48.645,24.109
-0.115,0.423,0.473,175.598,50.659,22.888
-0.074,0.419,0.486,172.729,50.964,21.240
-0.053,0.418,0.485,169.373,49.561,19.226
-0.016,0.410,0.491,168.335,45.410,16.357
0.044,0.412,0.500,169.861,37.903,13.672
0.062,0.438,0.512,174.377,27.100,13.977
0.009,0.424,0.599,182.190,17.090,17.761
-0.046,0.380,0.705,188.599,16.113,23.743
-0.044,0.312,0.791,191.345,23.315,28.809
-0.089,0.230,0.918,189.941,30.151,31.494
-0.119,0.144,1.028,184.753,36.804,31.128
-0.150,0.101,1.107,175.659,46.509,29.297
-0.129,0.114,1.162,161.743,58.105,24.841
-0.114,0.167,1.183,144.836,67.566,18.921
-0.122,0.202,1.192,132.141,71.716,12.268
-0.114,0.226,1.166,125.610,70.679,5.676
-0.068,0.253,1.119,123.169,66.772,-0.488
-0.019,0.282,1.068,123.901,61.218,-5.676
-0.035,0.267,1.068,129.578,52.917,-8.850
0.043,0.252,1.115,135.437,46.814,-8.484
-0.056,0.232,1.167,135.742,46.631,-5.554
0.015,0.206,1.145,132.385,62.866,-5.188

0.049,-0.964,1.439,285.095,211.609,18.188
0.433,-0.924,1.484,263.977,329.407,65.247
0.344,-0.842,1.601,229.126,181.274,80.383
0.209,-0.761,1.370,188.538,95.947,78.369
0.137,-0.721,1.185,132.812,26.550,58.533
0.067,-0.654,1.047,65.125,6.592,53.589
0.013,-0.558,0.955,-0.366,6.104,73.792
0.030,-0.450,0.848,-51.514,21.240,100.159
0.112,-0.404,0.811,-84.290,44.189,118.713
0.271,-0.458,0.780,-105.835,72.083,118.164
0.214,-0.540,0.799,-117.004,101.440,116.699
-0.101,-0.665,0.854,-113.770,111.755,105.530
-0.142,-0.646,0.863,-87.280,121.887,78.552
-0.173,-0.586,0.818,-59.387,138.123,62.866
-0.209,-0.534,0.808,-42.542,130.127,46.814
-0.185,-0.459,0.721,-30.640,112.976,27.771
-0.099,-0.447,0.689,-20.264,95.825,17.883
-0.006,-0.457,0.705,-10.681,72.632,3.723
0.022,-0.356,0.673,-1.770,44.067,-9.644
0.082,-0.221,0.670,5.310,11.230,-24.597
0.393,-0.620,1.312,11.475,-9.216,-46.387
0.364,-0.573,1.138,-25.391,-43.823,-52.063
0.092,-0.301,0.716,-33.813,-32.715,-47.791
0.106,-0.303,0.681,-38.696,-50.842,-40.222
0.089,-0.233,0.814,-60.059,-86.853,-26.672
0.153,-0.294,0.696,-89.355,-83.740,-11.353
0.096,-0.369,0.685,-109.558,-98.328,-3.174
0.084,-0.564,1.255,-142.273,-92.651,1.343
0.191,-0.409,1.318,-171.204,8.057,15.259
0.212,-0.275,1.185,-125.366,43.823,9.705
0.288,-0.172,1.047,-60.791,42.297,-5.615
0.326,-0.201,0.966,-15.869,26.611,-21.118
0.190,-0.226,0.892,13.733,8.118,-40.649
0.117,-0.253,0.942,31.189,1.526,-50.537
0.029,-0.259,0.856,30.029,3.601,-53.711
-0.004,-0.262,0.900,18.982,13.733,-49.316
0.048,-0.189,0.934,-0.793,23.743,-37.292
0.062,-0.198,0.914,-18.799,34.973,-26.855
0.109,-0.217,0.911,-33.081,42.847,-14.954
0.176,-0.214,0.885,-44.678,45.349,-11.536
0.210,-0.221,0.910,-49.744,44.250,-10.376
0.218,-0.269,0.949,-51.270,47.974,-7.446
0.180,-0.258,0.945,-46.997,53.345,-6.592
0.131,-0.231,0.905,-39.307,49.500,-12.024
0.127,-0.210,0.952,-32.471,39.429,-21.118
0.039,-0.199,0.981,-25.940,28.076,-29.358
0.019,-0.195,1.001,-23.376,28.320,-39.368
0.075,-0.242,0.955,-31.250,44.800,-56.702
0.157,-0.225,0.898,-43.396,60.974,-73.303
0.179,-0.232,0.802,-55.725,69.458,-81.177
0.114,-0.229,0.703,-63.782,52.246,-74.280
0.204,-0.267,0.758,-74.890,24.597,-60.120
0.320,-0.159,1.056,-87.585,8.789,-41.931
0.269,0.019,1.075,-78.613,9.460,-22.644
0.102,-0.031,0.971,-40.161,-4.944,-7.446
0.117,-0.191,0.861,-10.132,-32.166,6.287
0.134,-0.275,0.851,-5.493,-57.068,36.133
0.097,-0.158,0.837,-17.822,-66.223,60.669
-0.023,-0.073,0.860,-33.997,-75.867,64.575
0.013,-0.133,0.947,-52.551,-77.515,58.655
0.147,-0.070,0.936,-67.261,-68.848,53.223
0.155,-0.089,1.097,-72.876,-59.387,53.467
0.175,-0.025,1.118,-65.186,-43.884,42.847
0.261,-0.080,1.027,-38.757,-32.166,27.588
0.159,-0.152,0.900,-12.878,-41.077,22.461
0.162,-0.179,0.814,-9.949,-46.631,20.020
0.250,-0.084,0.952,-27.100,-50.903,22.400
0.183,0.130,1.168,-35.339,-42.908,25.208
0.143,0.080,1.081,-12.207,-33.142,14.709
0.102,-0.082,0.926,11.475,-35.461,2.930
0.077,-0.092,0.938,12.329,-40.894,1.343
0.069,-0.104,0.992,6.165,-41.321,2.686
0.050,-0.042,0.981,3.723,-32.288,2.747
0.029,0.016,0.932,1.709,-25.146,0.671
-0.039,-0.043,0.869,-5.920,-22.339,0.122
-0.011,-0.105,0.853,-21.057,-23.560,-2.869
-0.058,-0.097,0.693,-43.518,-21.973,-4.700
0.967,0.063,1.600,-81.055,-31.616,-8.362
-0.118,-0.176,3.429,-78.857,-176.086,-23.865
-0.396,0.105,0.229,-35.461,-159.424,-15.625
-0.279,-0.028,0.246,3.357,-12.390,-13.062
-0.020,-0.147,0.864,28.687,63.232,-13.794
0.348,0.118,1.819,22.400,35.095,-0.854
0.087,0.040,1.452,-16.785,-20.813,8.606
-0.029,0.002,1.229,-13.062,-22.949,12.756
-0.046,0.027,0.779,2.686,3.967,10.742
0.055,-0.009,0.950,1.831,1.648,10.986
0.052,-0.030,0.896,2.380,2.014,18.127
0.048,-0.007,0.951,2.319,2.930,26.367
0.006,-0.055,0.975,2.380,4.578,35.706
-0.026,-0.034,1.034,2.869,3.662,38.147
-0.050,-0.009,0.927,1.953,2.869,34.790
-0.062,0.037,0.991,2.136,2.441,32.104
-0.153,0.053,0.901,2.686,2.991,31.189
-0.069,-0.020,1.026,2.136,2.747,24.536
0.010,-0.028,0.969,2.258,2.808,20.508
-0.023,-0.023,0.931,3.052,3.113,21.240
-0.050,-0.027,0.931,2.502,2.808,23.437
-0.009,-0.017,1.000,2.075,2.686,22.949
-0.057,0.001,1.022,2.686,3.235,23.437
-0.039,-0.007,0.977,2.258,3.174,22.583
-0.027,-0.002,1.000,2.869,3.357,22.766
-0.010,-0.013,0.974,2.380,2.625,22.217
-0.040,0.012,0.955,2.136,1.404,22.827
-0.124,0.010,1.020,2.930,2.686,22.522
-0.050,0.024,0.950,2.197,3.174,17.212
-0.028,-0.000,0.997,2.747,3.174,13.489
-0.071,0.019,0.949,2.319,2.319,13.000
-0.038,0.005,0.977,2.686,2.930,10.315
-0.032,0.000,0.967,2.991,3.235,8.789
-0.014,-0.006,0.974,2.869,3.052,8.789
-0.005,-0.009,0.969,2.625,2.869,9.583
-0.010,-0.007,0.966,2.441,2.686,11.169
-0.010,-0.011,0.986,2.563,2.441,12.878
-0.001,-0.010,0.964,2.869,2.869,14.954
-0.081,0.027,0.944,2.747,2.808,16.174
-0.032,0.004,0.986,2.502,3.174,14.160
-0.001,-0.012,0.963,2.686,3.052,12.634
-0.022,-0.002,0.981,3.052,2.991,14.160
