aX,aY,aZ,gX,gY,gZ
-0.012,-0.021,0.929,-3.540,11.108,3.174
-0.025,-0.008,0.962,1.099,27.771,25.330
-0.028,-0.009,0.960,2.747,13.245,13.916
-0.028,-0.010,0.960,2.686,3.906,3.723
-0.027,-0.012,0.958,2.808,2.686,2.380
-0.027,-0.012,0.959,2.747,2.502,2.136
-0.026,-0.013,0.957,2.808,2.625,2.136
-0.026,-0.013,0.957,2.625,2.747,2.136
-0.024,-0.013,0.956,2.686,2.625,2.075
-0.025,-0.012,0.956,2.563,2.502,2.136
-0.024,-0.011,0.955,2.625,2.502,2.136
-0.023,-0.010,0.955,2.686,2.441,2.197
-0.023,-0.009,0.954,2.747,2.441,2.197
-0.022,-0.008,0.956,2.747,2.441,2.014
-0.023,-0.007,0.956,2.869,2.380,2.197
-0.023,-0.007,0.955,2.686,2.563,2.197
-0.023,-0.008,0.954,2.686,2.563,1.953
-0.023,-0.004,0.955,2.625,2.563,2.014
-0.022,-0.003,0.954,2.380,2.625,2.075
-0.022,-0.001,0.956,2.502,2.441,2.014
-0.022,-0.001,0.957,2.625,2.441,2.075
-0.020,-0.001,0.956,2.747,2.441,2.380
-0.021,-0.000,0.955,2.686,2.502,2.258
-0.019,-0.001,0.956,2.686,2.625,2.258
-0.021,-0.002,0.953,2.625,2.502,2.319
-0.021,-0.004,0.956,2.747,2.747,2.258
-0.023,-0.005,0.954,2.686,2.625,2.136
-0.024,-0.007,0.956,2.625,2.502,2.258
-0.024,-0.009,0.955,2.625,2.502,2.319
-0.027,-0.011,0.956,2.747,2.502,2.319
-0.027,-0.013,0.956,2.869,2.625,2.258
-0.028,-0.011,0.955,2.686,2.563,2.380
-0.029,-0.013,0.956,2.686,2.686,2.319
-0.028,-0.014,0.955,2.686,2.502,2.197
-0.027,-0.013,0.956,2.686,2.441,2.136
-0.026,-0.012,0.956,2.563,2.441,2.136
-0.025,-0.010,0.955,2.686,2.563,2.136
-0.024,-0.010,0.956,2.563,2.686,2.258
-0.024,-0.010,0.956,2.625,2.502,2.258
-0.024,-0.010,0.957,2.686,2.502,2.075
-0.023,-0.009,0.957,2.625,2.625,2.136
-0.023,-0.009,0.956,2.747,2.625,2.136
-0.023,-0.009,0.956,2.869,2.625,2.136
-0.023,-0.009,0.957,2.747,2.625,2.258
-0.024,-0.010,0.958,2.808,2.563,2.136
-0.024,-0.010,0.958,2.686,2.502,2.258
-0.024,-0.009,0.956,2.686,2.502,2.197
-0.024,-0.009,0.957,2.625,2.625,2.075
-0.024,-0.009,0.958,2.563,2.502,2.014
-0.023,-0.008,0.958,2.686,2.502,2.014
-0.022,-0.007,0.957,2.563,2.686,2.197
-0.022,-0.005,0.957,2.808,2.625,2.197
-0.023,-0.005,0.957,2.747,2.563,2.136
-0.022,-0.006,0.958,2.747,2.686,2.075
-0.023,-0.006,0.958,2.869,2.625,2.075
-0.022,-0.005,0.958,2.747,2.686,2.197
-0.024,-0.005,0.957,2.563,2.563,2.258
-0.026,-0.005,0.958,2.686,2.625,2.136
-0.025,-0.007,0.958,2.563,2.563,2.258
-0.026,-0.008,0.958,2.625,2.502,2.136
-0.026,-0.008,0.958,2.563,2.441,2.136
-0.026,-0.009,0.957,2.686,2.380,2.258
-0.026,-0.008,0.958,2.686,2.441,2.258
-0.026,-0.008,0.959,2.686,2.625,2.380
-0.026,-0.007,0.958,2.686,2.502,2.014
-0.025,-0.006,0.959,2.686,2.563,2.136
-0.026,-0.007,0.958,2.625,2.563,2.136
-0.024,-0.007,0.959,2.686,2.563,2.014
-0.025,-0.006,0.958,2.747,2.502,2.136
-0.025,-0.007,0.959,2.747,2.625,2.258
-0.024,-0.006,0.959,2.686,2.686,2.197
-0.024,-0.007,0.959,2.625,2.563,2.136
-0.024,-0.008,0.958,2.563,2.441,2.136
-0.025,-0.008,0.960,2.686,2.441,2.258
-0.025,-0.008,0.959,2.625,2.686,2.136
-0.024,-0.008,0.959,2.502,2.625,2.136
-0.024,-0.009,0.959,2.686,2.563,2.075
-0.023,-0.010,0.960,2.563,2.625,2.014
-0.023,-0.009,0.959,2.625,2.747,2.136
-0.023,-0.009,0.959,2.625,2.563,2.075
-0.024,-0.008,0.959,2.686,2.625,2.075
-0.023,-0.008,0.959,2.686,2.563,2.075
-0.023,-0.008,0.960,2.502,2.563,2.136
-0.023,-0.007,0.961,2.625,2.502,2.136
-0.022,-0.007,0.959,2.808,2.563,2.136
-0.023,-0.007,0.961,2.686,2.502,2.258
-0.024,-0.007,0.961,2.747,2.502,2.319
-0.025,-0.007,0.960,2.563,2.625,2.136
-0.025,-0.007,0.961,2.686,2.686,2.075
-0.026,-0.006,0.961,2.563,2.563,2.197
-0.026,-0.007,0.960,2.625,2.563,2.319
-0.025,-0.007,0.960,2.686,2.441,2.136
-0.025,-0.007,0.961,2.625,2.625,2.136
-0.025,-0.008,0.961,2.563,2.502,2.136
-0.024,-0.008,0.961,2.686,2.625,2.197
-0.024,-0.009,0.961,2.502,2.686,2.075
-0.023,-0.008,0.961,2.502,2.686,2.075
-0.023,-0.009,0.961,2.563,2.563,2.197
-0.023,-0.008,0.961,2.563,2.625,2.197
-0.023,-0.008,0.961,2.686,2.563,2.197
-0.023,-0.008,0.962,2.563,2.625,2.197
-0.024,-0.009,0.962,2.625,2.563,2.136
-0.024,-0.008,0.962,2.686,2.625,2.136
-0.023,-0.008,0.961,2.502,2.380,2.136
-0.024,-0.007,0.962,2.625,2.441,2.136
-0.023,-0.008,0.962,2.808,2.686,2.197
-0.024,-0.007,0.961,2.747,2.625,2.197
-0.024,-0.007,0.961,2.686,2.502,2.136
-0.025,-0.006,0.962,2.747,2.563,2.136
-0.024,-0.007,0.962,2.686,2.625,2.197
-0.025,-0.007,0.961,2.869,2.625,2.197
-0.023,-0.007,0.963,2.747,2.686,2.258
-0.024,-0.006,0.962,2.563,2.625,2.319
-0.023,-0.006,0.963,2.686,2.563,2.136
-0.023,-0.006,0.964,2.747,2.563,2.136
-0.024,-0.006,0.962,2.563,2.563,2.075
-0.025,-0.006,0.961,2.686,2.441,2.197
-0.025,-0.006,0.961,2.686,2.502,2.197
-0.026,-0.008,0.963,2.625,2.563,2.136

-0.355,0.808,1.974,104.492,98.938,-59.326
-0.358,0.922,2.087,88.745,100.586,-58.655
-0.474,0.981,2.012,62.012,90.393,-52.734
-0.625,1.000,1.922,35.889,76.965,-48.523
-0.700,0.964,1.793,12.939,67.505,-52.124
-0.684,0.884,1.616,-5.188,63.965,-64.758
-0.603,0.768,1.473,-16.785,66.162,-80.261
-0.480,0.653,1.370,-26.123,68.909,-92.224
-0.357,0.555,1.330,-35.645,68.970,-96.863
-0.256,0.527,1.383,-48.279,61.829,-93.872
-0.253,0.519,1.481,-64.087,40.771,-84.351
-0.369,0.525,1.499,-83.984,10.559,-69.031
-0.563,0.503,1.515,-108.154,-19.104,-56.396
-0.765,0.478,1.472,-133.423,-44.006,-54.565
-0.928,0.435,1.367,-155.518,-62.439,-63.721
-1.102,0.339,1.250,-171.204,-72.876,-81.055
-1.242,0.269,1.153,-176.697,-69.946,-105.652
-1.303,0.198,1.101,-172.546,-52.856,-137.390
-1.334,0.036,0.988,-164.429,-30.518,-171.143
-1.332,-0.066,0.883,-155.029,-12.085,-203.857
-1.259,-0.122,0.774,-143.860,-1.587,-229.309
-1.180,-0.239,0.695,-132.568,4.089,-247.498
-1.056,-0.373,0.647,-124.756,6.531,-262.512
-0.902,-0.473,0.560,-119.568,2.625,-273.682
-0.770,-0.587,0.468,-112.854,-8.972,-281.982
-0.641,-0.659,0.491,-103.638,-23.193,-284.546
-0.478,-0.647,0.755,-94.910,-30.090,-278.931
-0.355,-0.614,0.929,-91.614,-25.330,-269.226
-0.345,-0.685,0.927,-94.971,-8.240,-269.531
-0.301,-0.791,0.826,-104.980,8.484,-277.588
-0.302,-0.797,0.681,-116.333,10.742,-278.503
-0.268,-0.814,0.541,-120.605,0.366,-267.517
-0.324,-0.831,0.381,-121.216,-18.555,-256.165
-0.359,-0.855,0.263,-117.371,-32.593,-249.146
-0.212,-0.809,0.188,-109.131,-36.560,-245.850
-0.024,-0.838,0.254,-97.839,-38.574,-240.784
0.073,-0.771,0.347,-89.661,-47.607,-230.469
0.088,-0.724,0.424,-86.060,-57.495,-217.468
0.107,-0.681,0.449,-83.313,-60.669,-209.045
0.161,-0.670,0.425,-79.773,-55.237,-206.787
0.255,-0.719,0.434,-75.317,-46.326,-209.106
0.378,-0.718,0.418,-70.435,-43.579,-208.740
0.512,-0.741,0.302,-64.331,-46.692,-197.327
0.604,-0.791,0.172,-49.438,-46.570,-184.692
0.689,-0.800,0.057,-27.710,-41.443,-176.331
0.852,-0.838,-0.052,-0.122,-26.489,-168.091
1.015,-0.864,-0.044,34.546,-6.897,-157.593
1.159,-0.831,-0.046,72.205,13.916,-142.151
1.230,-0.794,0.081,110.901,39.673,-122.009
1.155,-0.694,0.394,144.714,62.622,-103.088
1.073,-0.542,0.614,160.095,71.960,-86.060
1.009,-0.466,0.788,159.607,70.740,-74.219
1.007,-0.451,0.814,147.339,62.439,-73.059
1.065,-0.508,0.825,130.066,55.054,-72.571
1.197,-0.559,0.852,115.967,47.913,-68.176
1.297,-0.624,0.900,103.455,36.499,-59.570
1.343,-0.659,0.959,88.867,18.372,-49.438
1.405,-0.655,0.990,69.763,-0.732,-36.804
1.479,-0.607,1.071,50.842,-6.775,-27.771
1.464,-0.580,1.161,31.494,-10.681,-23.865
1.454,-0.517,1.143,6.897,-16.724,-20.874
1.395,-0.516,1.079,-16.113,-23.315,-14.526
1.346,-0.452,0.973,-29.114,-30.396,-8.118
1.371,-0.472,0.831,-34.912,-28.625,-3.479
1.430,-0.463,0.706,-32.837,-19.287,-1.953
1.491,-0.481,0.566,-26.611,-5.615,1.648
1.539,-0.486,0.435,-17.334,11.475,6.775
1.504,-0.512,0.252,-9.766,26.062,13.611
1.445,-0.553,0.031,-0.732,37.903,20.325
1.382,-0.574,-0.159,13.428,45.410,25.879
1.252,-0.625,-0.248,32.349,44.800,32.959
1.006,-0.672,-0.240,51.514,35.706,40.466
0.759,-0.566,-0.154,69.763,15.137,44.067
0.582,-0.557,-0.042,82.397,-6.958,46.875
0.529,-0.504,0.279,94.910,-25.024,46.021
0.522,-0.318,0.753,96.741,-46.143,43.457
0.513,-0.176,1.065,84.961,-74.524,47.058
0.498,-0.083,1.219,65.063,-98.572,52.856
0.466,0.023,1.242,43.396,-107.422,52.856
0.426,0.109,1.224,28.137,-100.586,47.180
0.401,0.126,1.163,22.400,-83.740,39.856
0.403,0.124,1.051,23.010,-61.523,31.799
0.420,0.126,1.020,31.494,-37.842,24.536
0.401,0.121,1.056,42.725,-19.531,19.409
0.350,0.139,1.098,48.279,-9.705,15.198
0.298,0.163,1.103,46.387,-7.874,9.460
0.274,0.153,1.069,39.734,-13.184,3.418
0.305,0.114,1.007,31.067,-22.644,-1.526
0.392,0.060,0.932,22.339,-33.752,-5.066
0.503,-0.009,0.827,15.381,-44.922,-5.737
0.601,-0.080,0.760,12.817,-53.040,-2.441
0.704,-0.069,0.802,13.916,-53.162,3.662
0.787,-0.089,0.860,15.137,-45.532,9.644
0.807,-0.104,0.875,10.681,-35.156,12.146
0.786,-0.093,0.836,2.075,-24.170,12.573
0.755,-0.128,0.720,-6.470,-13.672,13.367
0.746,-0.167,0.602,-11.902,-3.296,13.000
0.745,-0.221,0.501,-13.184,5.127,13.245
0.728,-0.271,0.404,-10.620,8.362,15.015
0.699,-0.308,0.345,-5.981,6.348,18.250
0.710,-0.340,0.319,0.122,0.671,23.132
0.723,-0.391,0.326,6.470,-8.301,29.907
0.657,-0.399,0.387,12.878,-20.386,36.987
0.575,-0.385,0.474,18.799,-32.471,44.250
0.518,-0.341,0.628,25.208,-40.222,51.270
0.475,-0.256,0.823,29.968,-44.373,56.458
0.435,-0.188,0.996,31.799,-47.302,61.707
0.405,-0.115,1.129,31.311,-46.997,65.369
0.353,-0.035,1.216,28.503,-43.579,67.017
0.309,0.017,1.279,25.452,-36.743,65.308
0.292,0.056,1.306,21.118,-26.917,59.326
0.264,0.077,1.288,14.404,-17.090,50.720
0.264,0.102,1.237,6.348,-8.118,41.504
0.375,0.094,1.212,-0.732,-3.052,29.175
0.392,0.128,1.088,-12.695,-4.456,23.560
0.338,0.006,0.987,-14.343,-5.737,29.663
0.346,0.010,0.923,-14.893,-3.784,24.780
0.387,0.041,0.886,-14.160,0.916,17.090
0.417,-0.016,0.894,-7.080,5.493,15.015

0.630,0.580,1.319,-42.725,-103.943,164.734
0.477,0.430,0.865,-72.510,-166.321,204.529
0.412,0.372,0.489,-72.571,-181.702,227.600
0.245,0.369,0.338,-40.039,-147.888,234.680
-0.008,0.333,0.466,12.878,-71.472,224.365
-0.166,0.425,0.878,68.054,34.729,190.613
-0.089,0.626,1.400,109.375,141.418,139.709
0.035,0.801,1.769,128.296,212.158,95.947
0.113,0.823,1.889,127.258,232.849,72.266
0.130,0.823,1.774,100.281,211.182,68.665
0.126,0.750,1.494,65.735,172.791,71.899
0.173,0.640,1.208,41.748,138.367,70.740
0.253,0.566,1.033,26.917,117.615,65.613
0.397,0.463,1.090,18.066,102.539,58.228
0.504,0.301,1.291,9.583,71.228,57.312
0.499,0.145,1.310,-12.024,12.207,78.430
-0.097,0.105,0.998,-32.532,-42.297,118.958
-0.567,0.229,0.795,-24.292,-35.034,127.319
-0.707,0.343,1.037,13.367,23.865,89.783
-0.714,0.427,1.405,49.866,88.745,33.447
-0.655,0.411,1.602,66.528,137.024,-14.160
-0.590,0.331,1.579,67.871,158.020,-51.270
-0.403,0.222,1.488,67.932,157.654,-76.111
-0.237,-0.029,1.286,73.730,139.038,-84.045
0.047,-0.169,1.089,90.942,118.652,-80.933
0.347,-0.178,1.357,119.751,104.492,-65.125
0.449,-0.017,1.795,147.766,85.083,-35.156
0.644,0.096,2.161,150.574,74.280,-4.395
0.658,0.336,2.482,134.949,69.763,26.123
0.391,0.609,2.595,102.234,58.411,56.946
0.036,0.870,2.579,61.401,43.152,81.177
-0.280,1.084,2.543,21.851,27.344,95.093
-0.694,1.193,2.516,-15.869,12.878,99.121
-1.032,1.131,2.295,-56.702,1.648,87.585
-1.222,0.866,1.861,-95.703,-0.244,60.120
-1.177,0.584,1.230,-124.146,2.197,17.944
-0.912,0.310,0.680,-137.146,5.249,-22.522
-0.608,0.165,0.412,-128.967,1.038,-49.744
-0.625,0.121,0.378,-111.755,-14.771,-59.265
-0.629,0.124,0.644,-95.520,-20.569,-65.674
-0.539,0.234,1.038,-88.196,-21.973,-76.477
-0.501,0.311,1.390,-95.825,-35.461,-82.153
-0.523,0.316,1.557,-116.455,-60.913,-79.285
-0.587,0.303,1.575,-142.212,-83.862,-77.820
-0.706,0.267,1.486,-163.635,-95.520,-82.153
-0.880,0.222,1.355,-176.941,-98.145,-94.055
-1.046,0.164,1.138,-182.434,-93.384,-112.183
-1.146,0.092,0.898,-177.307,-79.651,-138.977
-1.183,-0.045,0.787,-161.133,-59.570,-172.913
-1.097,-0.168,0.738,-139.954,-38.757,-206.726
-0.980,-0.295,0.776,-119.873,-21.606,-233.398
-0.807,-0.373,0.840,-103.271,-5.554,-250.671
-0.604,-0.459,0.912,-91.980,11.108,-261.658
-0.490,-0.510,0.980,-87.708,23.315,-266.968
-0.428,-0.531,1.168,-89.966,25.879,-264.160
-0.510,-0.501,1.322,-100.281,14.404,-252.747
-0.612,-0.461,1.350,-115.967,-1.770,-242.615
-0.635,-0.476,1.254,-131.592,-10.986,-240.967
-0.642,-0.564,1.087,-141.235,-15.320,-246.338
-0.606,-0.633,0.832,-143.372,-12.146,-256.775
-0.442,-0.707,0.654,-135.132,0.366,-269.958
-0.331,-0.778,0.488,-117.737,10.071,-276.001
-0.178,-0.820,0.439,-96.863,20.874,-277.954
-0.066,-0.824,0.451,-76.050,30.701,-278.503
-0.086,-0.804,0.517,-58.716,33.691,-276.367
-0.165,-0.784,0.608,-46.326,33.752,-273.621
-0.233,-0.769,0.685,-39.063,33.752,-271.790
-0.245,-0.756,0.761,-34.790,33.020,-270.996
-0.188,-0.784,0.773,-34.241,31.494,-272.095
-0.085,-0.886,0.850,-37.720,28.748,-273.926
0.049,-0.908,0.926,-47.668,23.315,-271.790
0.136,-0.977,0.776,-61.401,16.052,-266.907
0.216,-1.076,0.493,-69.946,15.320,-265.198
0.300,-1.153,0.231,-65.796,20.996,-266.846
0.480,-1.222,0.076,-49.561,33.020,-269.043
0.758,-1.269,-0.126,-26.001,41.992,-266.052
1.001,-1.344,-0.285,3.540,45.837,-249.329
1.282,-1.361,-0.179,40.833,52.612,-224.548
1.491,-1.347,0.032,72.693,57.495,-199.402
1.693,-1.191,0.322,83.984,53.833,-178.711
1.854,-1.069,0.661,71.472,32.410,-154.785
1.961,-1.001,0.864,39.978,-7.812,-126.099
2.019,-1.018,0.935,-4.944,-48.950,-98.145
2.112,-1.063,0.837,-52.856,-79.590,-75.256
2.285,-1.174,0.656,-91.736,-87.769,-56.885
2.387,-1.308,0.353,-117.188,-73.669,-41.870
2.373,-1.469,-0.129,-129.700,-42.236,-28.992
2.252,-1.604,-0.652,-120.300,-6.958,-19.531
2.035,-1.669,-0.992,-92.041,23.010,-7.812
1.728,-1.548,-1.105,-49.927,30.396,18.494
1.490,-1.452,-0.751,0.610,9.338,58.228
1.113,-1.023,-0.442,39.246,-39.795,97.595
0.815,-0.848,0.030,68.970,-70.313,131.165
0.666,-0.476,0.512,86.182,-74.829,134.338
0.640,-0.163,0.918,86.487,-65.063,128.113
0.498,0.014,1.129,79.285,-58.655,122.864
0.397,0.143,1.122,64.453,-47.668,117.554
0.337,0.229,1.064,52.490,-27.954,106.140
0.255,0.292,1.004,52.124,-8.789,89.966
0.218,0.319,1.052,59.082,6.226,67.322
0.261,0.376,1.137,64.758,13.062,44.434
0.295,0.408,1.223,65.796,9.460,30.151
0.290,0.379,1.237,59.814,-2.380,23.621
0.343,0.345,1.163,47.058,-15.015,16.296
0.473,0.289,1.042,32.593,-22.400,8.667
0.582,0.180,0.899,21.057,-26.123,2.625
0.667,0.104,0.781,10.498,-24.536,-2.563
0.708,0.050,0.746,3.601,-21.423,-3.479
0.750,-0.002,0.690,-1.404,-19.165,-1.404
0.766,-0.066,0.598,-5.127,-15.991,0.671
0.759,-0.082,0.547,-4.700,-11.841,1.221
0.738,-0.116,0.521,-0.793,-8.240,2.686
0.692,-0.118,0.550,5.493,-5.554,3.540
0.627,-0.102,0.621,11.719,-4.456,3.479
0.571,-0.065,0.743,16.785,-5.920,4.333
0.523,-0.038,0.825,16.602,-11.414,5.127
0.497,-0.007,0.900,12.817,-18.005,3.662
0.528,0.007,0.950,6.836,-21.851,1.282
0.591,-0.007,0.938,-0.183,-22.888,-0.183

0.172,-0.698,1.752,84.106,-97.351,147.339
0.207,-0.688,1.725,68.665,-98.206,153.137
0.169,-0.659,1.659,54.810,-97.778,161.438
0.093,-0.641,1.603,44.006,-95.703,169.006
0.003,-0.563,1.538,36.316,-92.712,173.279
-0.036,-0.571,1.573,32.654,-87.585,178.223
-0.104,-0.476,1.585,29.541,-88.745,180.969
-0.175,-0.429,1.551,24.109,-85.083,184.265
-0.163,-0.414,1.521,25.391,-70.801,182.922
-0.106,-0.388,1.489,30.090,-49.561,181.091
-0.037,-0.383,1.445,36.255,-24.170,183.472
0.039,-0.410,1.461,46.631,5.066,187.744
0.092,-0.457,1.497,56.091,37.048,193.970
0.073,-0.517,1.532,64.514,63.843,197.327
0.004,-0.497,1.598,69.885,81.848,192.993
-0.095,-0.379,1.710,67.139,90.637,188.293
-0.237,-0.304,1.806,56.519,84.106,194.397
-0.368,-0.227,1.745,38.086,69.580,202.271
-0.379,-0.194,1.624,18.860,62.805,201.660
-0.276,-0.234,1.454,4.761,62.927,197.327
-0.160,-0.300,1.238,-2.991,67.322,196.655
-0.003,-0.382,1.109,-0.427,77.515,200.684
0.110,-0.494,1.024,8.789,93.140,210.266
0.091,-0.614,1.006,21.790,112.732,222.290
-0.070,-0.730,1.099,35.828,132.996,232.666
-0.315,-0.810,1.231,46.265,147.888,237.915
-0.535,-0.862,1.334,48.096,148.743,240.784
-0.714,-0.876,1.540,43.884,129.700,245.667
-0.878,-0.858,1.779,29.175,94.727,255.981
-0.989,-0.768,1.984,3.784,51.941,269.226
-1.094,-0.599,2.011,-26.978,12.390,284.485
-1.220,-0.307,1.992,-55.359,-15.259,296.143
-1.280,0.181,2.153,-78.369,-29.175,301.514
-1.570,0.748,2.234,-106.201,-35.400,306.091
-2.150,1.455,2.031,-141.968,-36.011,297.729
-3.520,2.151,2.429,-177.612,-29.724,268.250
-4.000,2.754,2.073,-219.238,-25.940,196.228
-4.000,2.295,1.412,-247.253,-5.188,61.157
-2.692,1.130,0.684,-232.056,-8.972,-75.439
-1.183,0.048,-0.047,-201.050,-35.278,-153.137
0.020,-0.546,-0.254,-166.443,-49.744,-168.030
0.443,-0.552,0.059,-122.314,-64.575,-150.879
0.479,-0.466,0.578,-85.144,-69.397,-123.047
0.367,-0.378,1.045,-70.190,-51.880,-105.408
0.226,-0.172,1.421,-79.346,-33.630,-98.999
0.078,0.007,1.667,-102.966,-35.767,-91.675
0.063,0.114,1.828,-138.428,-55.908,-81.421
-0.040,0.239,1.912,-185.547,-97.473,-69.397
-0.366,0.229,1.699,-236.633,-150.818,-47.852
-0.725,0.254,1.337,-276.001,-184.570,-43.396
-1.151,0.267,0.858,-290.955,-198.486,-62.134
-1.478,0.216,0.398,-276.611,-189.331,-96.619
-1.530,0.176,0.097,-239.319,-160.156,-141.663
-1.402,0.098,-0.044,-189.331,-124.939,-183.960
-1.301,0.032,0.052,-137.024,-94.360,-217.712
-1.201,0.021,0.253,-96.252,-72.327,-243.774
-1.152,0.001,0.403,-71.777,-66.101,-261.047
-1.070,-0.091,0.591,-56.824,-72.937,-272.339
-0.984,-0.126,0.769,-52.185,-93.689,-280.457
-0.900,-0.185,0.918,-56.091,-123.047,-280.457
-0.785,-0.280,1.080,-62.317,-153.076,-274.902
-0.660,-0.283,1.207,-71.167,-180.603,-267.639
-0.633,-0.320,1.210,-81.970,-204.712,-259.460
-0.727,-0.377,0.999,-92.285,-221.069,-254.150
-0.724,-0.354,0.786,-96.191,-223.816,-256.470
-0.702,-0.460,0.620,-84.229,-223.755,-259.033
-0.684,-0.504,0.507,-64.087,-223.633,-262.390
-0.646,-0.517,0.421,-43.579,-219.238,-264.526
-0.604,-0.567,0.416,-17.273,-211.670,-264.343
-0.518,-0.605,0.517,9.399,-197.571,-263.733
-0.442,-0.618,0.699,31.067,-181.091,-262.695
-0.376,-0.586,0.923,43.335,-167.969,-258.362
-0.365,-0.517,1.094,43.152,-159.058,-249.878
-0.499,-0.462,1.106,34.363,-155.884,-240.479
-0.651,-0.446,1.046,23.987,-158.264,-234.619
-0.739,-0.503,0.945,14.771,-162.720,-232.422
-0.745,-0.552,0.848,8.972,-169.067,-235.229
-0.664,-0.620,0.776,7.446,-182.007,-238.464
-0.523,-0.712,0.767,10.193,-200.012,-233.215
-0.303,-0.727,0.856,15.381,-215.454,-221.436
-0.178,-0.736,0.927,20.142,-226.501,-204.773
-0.067,-0.749,1.014,24.658,-225.769,-187.927
0.020,-0.749,1.126,29.907,-217.651,-175.903
0.036,-0.732,1.209,29.846,-208.618,-160.034
0.018,-0.716,1.306,29.175,-197.998,-139.465
-0.068,-0.678,1.409,29.297,-189.575,-121.460
-0.099,-0.621,1.638,27.893,-180.847,-105.103
-0.067,-0.519,1.919,21.240,-170.288,-89.111
-0.096,-0.390,2.120,5.859,-161.499,-75.928
-0.090,-0.212,2.209,-15.930,-153.625,-68.054
-0.033,-0.012,2.221,-40.100,-146.545,-60.974
0.013,0.142,2.083,-63.171,-137.451,-51.819
0.083,0.265,1.827,-80.444,-118.713,-46.753
0.207,0.361,1.539,-86.060,-92.102,-44.495
0.343,0.341,1.196,-74.829,-62.805,-37.170
0.482,0.324,1.044,-45.288,-29.480,-25.818
0.606,0.336,1.123,-7.935,4.822,-11.597
0.611,0.334,1.415,23.560,33.264,5.432
0.529,0.442,1.868,39.612,51.758,21.790
0.395,0.554,2.147,32.288,54.688,34.119
0.202,0.603,2.213,7.202,45.837,42.725
0.034,0.681,2.085,-25.391,35.889,42.725
-0.054,0.678,1.838,-52.917,31.067,35.706
-0.037,0.697,1.539,-74.951,37.109,22.217
-0.015,0.646,1.241,-86.609,47.363,15.381
-0.033,0.604,0.938,-83.984,57.556,18.311
-0.095,0.557,0.635,-72.388,71.167,23.621
-0.169,0.585,0.459,-51.086,86.060,25.757
-0.275,0.591,0.356,-22.888,93.750,28.381
-0.389,0.680,0.383,3.845,92.163,28.687
-0.492,0.794,0.499,23.560,81.665,26.184
-0.519,0.822,0.631,34.546,64.270,22.644
-0.448,0.819,0.747,36.133,45.227,17.456
-0.355,0.784,0.783,31.250,26.001,11.292
-0.276,0.716,0.756,24.841,10.437,6.836
-0.190,0.648,0.723,20.630,1.404,3.174
-0.100,0.595,0.708,19.897,-2.014,1.038
-0.034,0.566,0.678,20.264,-1.465,-0.549
-0.005,0.537,0.616,22.156,0.732,-0.610

-0.301,0.543,1.592,33.813,45.044,184.082
-0.227,0.483,1.518,33.142,50.659,170.593
-0.139,0.446,1.537,37.598,68.604,156.616
0.018,0.433,1.611,44.861,91.858,144.836
0.095,0.427,1.693,49.011,111.328,140.137
0.160,0.395,1.864,46.936,124.573,138.672
0.168,0.462,1.931,37.109,133.240,140.198
0.077,0.450,1.992,26.917,142.029,147.278
-0.085,0.500,2.003,11.658,146.606,141.724
-0.190,0.647,1.969,-4.578,150.024,122.375
-0.156,0.710,1.870,-17.456,155.640,103.088
0.022,0.674,1.717,-27.100,160.217,86.182
0.201,0.594,1.515,-33.508,162.842,77.576
0.266,0.462,1.271,-31.189,171.814,77.332
0.260,0.388,1.129,-19.226,192.871,73.059
0.153,0.334,1.130,-3.235,219.116,64.087
-0.069,0.316,1.120,11.108,237.183,52.734
-0.232,0.302,1.120,22.156,241.821,40.405
-0.250,0.203,1.142,31.433,236.694,28.198
-0.180,0.059,1.128,37.598,223.450,14.832
-0.092,-0.062,1.129,41.870,207.397,3.784
-0.047,-0.091,1.178,49.988,191.711,-1.282
0.024,-0.165,1.302,64.148,174.988,-2.991
0.100,-0.196,1.419,74.951,153.625,-0.610
0.143,-0.213,1.595,84.167,135.742,8.179
0.172,-0.114,1.805,94.727,119.812,20.874
0.072,0.005,2.018,99.182,100.891,37.598
-0.041,0.226,2.286,95.398,77.820,53.284
-0.092,0.568,2.711,82.275,54.138,66.345
-0.162,0.992,3.066,55.481,31.189,76.660
-0.331,1.304,3.251,15.076,10.742,80.261
-0.640,1.456,3.280,-33.325,-6.653,76.294
-1.015,1.403,3.011,-85.693,-14.099,62.683
-1.217,1.102,2.543,-131.409,-6.042,31.921
-1.098,0.708,1.884,-162.964,16.235,-10.803
-0.869,0.353,1.343,-177.612,42.114,-52.368
-0.894,-0.023,0.939,-175.903,52.856,-81.299
-0.568,-0.040,0.908,-171.082,57.434,-104.492
-0.470,-0.083,1.001,-170.227,40.039,-109.131
-0.408,-0.167,1.220,-176.514,9.949,-95.825
-0.424,-0.139,1.385,-196.533,-25.574,-84.595
-0.581,-0.108,1.509,-221.802,-60.608,-76.111
-0.789,-0.141,1.512,-245.911,-90.698,-72.083
-1.019,-0.131,1.356,-268.433,-119.263,-78.308
-1.194,-0.179,1.130,-284.668,-146.545,-94.910
-1.377,-0.259,0.859,-287.231,-173.096,-116.882
-1.490,-0.385,0.724,-271.301,-182.739,-142.761
-1.486,-0.479,0.590,-242.798,-169.128,-177.673
-1.444,-0.569,0.548,-210.510,-140.625,-220.459
-1.359,-0.610,0.537,-179.810,-110.901,-259.094
-1.193,-0.671,0.578,-153.992,-86.060,-284.729
-1.197,-0.797,0.540,-134.399,-78.979,-300.598
-1.100,-0.904,0.635,-127.136,-69.092,-309.875
-0.845,-0.857,0.750,-125.793,-63.660,-315.735
-0.680,-0.967,0.737,-131.897,-85.632,-312.439
-0.570,-1.108,0.613,-144.897,-121.826,-305.542
-0.456,-1.081,0.437,-156.067,-159.241,-298.218
-0.415,-1.106,0.340,-155.701,-191.956,-286.560
-0.462,-1.126,0.372,-142.029,-217.041,-276.062
-0.442,-1.060,0.371,-124.023,-225.037,-269.531
-0.448,-1.135,0.318,-100.647,-211.426,-269.897
-0.322,-1.146,0.382,-73.181,-185.486,-283.203
-0.224,-1.211,0.508,-48.889,-166.443,-292.114
-0.020,-1.304,0.664,-32.654,-155.823,-295.898
0.194,-1.344,0.849,-28.320,-155.457,-296.814
0.280,-1.296,1.038,-32.837,-168.762,-286.865
0.337,-1.231,1.186,-39.856,-188.538,-267.578
0.267,-1.205,1.165,-48.340,-210.999,-249.329
0.188,-1.184,1.064,-55.420,-225.098,-234.314
0.285,-1.157,1.080,-52.002,-222.656,-223.755
0.398,-1.137,1.115,-41.626,-212.891,-212.769
0.495,-1.083,1.246,-28.992,-199.402,-197.449
0.496,-1.008,1.374,-18.311,-183.960,-176.331
0.453,-0.825,1.402,-9.460,-162.109,-158.142
0.325,-0.717,1.483,-4.395,-136.047,-146.606
0.245,-0.561,1.618,-7.568,-121.338,-137.390
0.201,-0.449,1.663,-22.156,-125.854,-125.183
0.172,-0.382,1.689,-42.114,-141.907,-113.586
0.194,-0.343,1.667,-64.453,-161.743,-108.398
0.329,-0.271,1.629,-84.167,-173.157,-104.553
0.524,-0.256,1.599,-94.238,-174.194,-100.708
0.628,-0.259,1.548,-96.558,-169.739,-94.116
0.675,-0.182,1.519,-95.947,-154.175,-84.534
0.656,-0.118,1.481,-89.905,-128.845,-76.050
0.635,-0.068,1.546,-79.163,-100.647,-70.984
0.590,0.012,1.666,-71.838,-78.491,-65.186
0.511,0.078,1.758,-70.435,-66.772,-57.617
0.462,0.072,1.771,-72.266,-61.035,-52.612
0.468,0.011,1.768,-73.853,-55.664,-47.852
0.574,-0.025,1.782,-74.036,-47.791,-42.053
0.578,-0.141,1.713,-72.021,-41.260,-27.283
0.564,-0.168,1.576,-67.139,-27.283,-13.184
0.617,-0.080,1.455,-59.326,-1.892,-4.700
0.611,-0.058,1.403,-46.204,23.010,11.902
0.434,-0.021,1.276,-38.208,41.626,30.701
0.185,0.085,1.092,-35.522,56.213,38.574
-0.014,0.237,1.011,-32.166,68.604,36.316
-0.116,0.400,0.947,-30.640,68.298,28.320
-0.160,0.505,0.866,-33.386,55.237,23.193
-0.172,0.570,0.738,-37.415,36.865,19.287
-0.127,0.581,0.584,-38.452,19.775,14.038
-0.040,0.561,0.489,-33.081,10.193,8.545
0.061,0.527,0.448,-22.705,6.836,6.714
0.124,0.498,0.497,-10.132,11.169,10.254
0.135,0.470,0.577,4.028,21.484,13.977
0.057,0.435,0.692,16.663,32.837,16.785
-0.095,0.457,0.779,24.048,40.405,17.639
-0.218,0.474,0.838,24.597,41.687,14.587
-0.268,0.488,0.880,19.897,35.339,10.498
-0.291,0.500,0.906,12.085,21.973,5.737
-0.244,0.520,0.898,3.052,6.836,0.305
-0.174,0.492,0.837,-4.456,-4.822,-3.784
-0.075,0.455,0.806,-7.263,-12.268,-7.812
0.016,0.419,0.767,-7.446,-17.273,-9.216
0.085,0.389,0.723,-4.883,-18.555,-7.385
0.128,0.375,0.694,0.427,-14.771,-3.601
0.149,0.381,0.738,9.094,-6.226,0.549
0.137,0.385,0.792,17.456,4.822,3.723
0.065,0.390,0.845,23.010,15.625,6.653

-0.434,0.554,2.072,39.551,216.736,186.340
-0.488,0.647,1.981,27.527,207.825,167.725
-0.403,0.699,1.909,10.437,190.552,149.902
-0.269,0.675,1.814,-9.033,171.509,138.184
-0.121,0.556,1.794,-30.945,153.320,130.798
-0.008,0.454,1.949,-57.434,137.085,129.822
-0.119,0.421,1.994,-91.614,116.333,144.653
-0.385,0.309,1.765,-122.192,98.633,169.373
-0.810,0.192,1.319,-137.817,99.976,178.894
-1.186,0.193,0.998,-124.268,121.460,158.264
-1.360,0.347,0.849,-90.149,149.353,119.141
-1.375,0.520,0.976,-53.101,164.490,85.022
-1.343,0.715,1.320,-26.245,150.085,62.256
-1.181,0.816,1.566,-20.935,109.863,55.115
-0.978,0.831,1.735,-31.494,67.383,61.157
-0.788,0.777,1.612,-50.232,41.565,70.007
-0.671,0.621,1.375,-61.462,36.316,76.904
-0.651,0.521,1.151,-57.068,46.631,83.191
-0.820,0.517,0.996,-41.382,66.528,84.534
-1.034,0.607,1.057,-18.250,87.158,72.327
-1.180,0.781,1.237,2.808,92.529,49.316
-1.136,0.951,1.458,9.338,80.139,24.414
-1.028,1.035,1.730,-2.686,50.598,10.071
-0.988,1.107,2.020,-33.630,4.944,12.695
-1.034,1.183,2.280,-82.825,-43.213,25.452
-1.174,1.218,2.361,-141.663,-87.219,35.095
-1.344,1.132,2.210,-198.303,-121.521,33.630
-1.500,0.935,1.865,-244.934,-145.813,18.372
-1.681,0.691,1.399,-277.405,-159.729,-5.859
-1.886,0.525,0.862,-291.565,-162.170,-40.771
-2.116,0.334,0.456,-280.334,-158.997,-88.867
-2.212,0.137,0.267,-247.375,-151.428,-141.907
-2.216,-0.051,0.208,-205.200,-137.024,-195.251
-2.014,-0.102,0.398,-160.522,-117.676,-248.535
-1.914,-0.397,0.635,-118.164,-107.422,-288.513
-1.702,-0.614,0.855,-91.248,-91.370,-321.228
-1.436,-0.728,1.094,-78.857,-73.303,-346.802
-1.266,-0.861,1.285,-76.782,-69.275,-357.971
-1.118,-0.953,1.272,-88.745,-79.285,-352.600
-1.235,-1.080,1.074,-101.746,-102.051,-343.750
-1.169,-1.171,0.970,-114.807,-109.985,-338.623
-1.023,-1.150,0.836,-114.075,-111.816,-341.736
-0.862,-1.190,0.771,-102.417,-119.507,-342.102
-0.714,-1.160,0.767,-88.074,-130.371,-336.243
-0.672,-1.187,0.781,-74.219,-140.503,-327.881
-0.583,-1.133,0.806,-66.406,-142.273,-326.660
-0.458,-1.097,0.863,-63.782,-142.639,-324.646
-0.412,-1.152,0.833,-60.669,-158.813,-316.956
-0.284,-1.133,0.788,-60.364,-176.270,-311.523
-0.206,-1.111,0.736,-55.603,-191.589,-303.589
-0.127,-1.122,0.757,-45.837,-195.801,-293.457
-0.022,-1.075,0.871,-33.936,-195.557,-285.706
0.045,-1.069,0.868,-22.888,-191.895,-275.574
0.273,-1.013,0.971,-11.841,-175.354,-268.555
0.368,-0.997,1.029,0.122,-166.687,-260.010
0.405,-0.958,1.059,6.348,-165.527,-246.826
0.479,-0.908,1.207,12.878,-164.551,-232.666
0.581,-0.847,1.386,18.005,-167.664,-217.590
0.633,-0.791,1.510,16.663,-173.157,-201.599
0.704,-0.789,1.579,11.597,-177.673,-185.120
0.790,-0.771,1.595,3.418,-179.199,-169.312
0.943,-0.795,1.610,-2.197,-181.030,-153.625
1.167,-0.827,1.651,-4.639,-175.537,-136.780
1.378,-0.772,1.704,-8.667,-159.729,-121.765
1.503,-0.669,1.711,-12.634,-140.442,-103.638
1.502,-0.606,1.689,-13.733,-124.451,-82.703
1.433,-0.507,1.672,-14.282,-109.497,-65.491
1.296,-0.372,1.704,-15.808,-92.651,-52.429
1.209,-0.195,1.763,-19.592,-77.148,-42.786
1.184,-0.093,1.729,-28.931,-67.200,-33.875
1.113,-0.048,1.654,-39.063,-62.073,-23.682
1.038,0.008,1.546,-46.082,-57.373,-13.489
1.025,0.028,1.452,-47.363,-49.255,-5.310
1.066,0.027,1.354,-43.823,-35.828,2.441
1.060,0.005,1.257,-36.743,-18.860,11.719
0.927,-0.001,1.079,-28.687,-0.366,20.203
0.901,0.072,0.972,-20.020,23.437,23.865
0.650,0.005,0.903,-8.423,39.795,29.297
0.416,0.097,0.794,0.244,49.744,27.649
0.406,0.315,0.741,1.953,61.646,17.212
0.407,0.383,0.765,11.719,57.495,21.362
0.290,0.365,0.781,18.738,38.696,35.522
0.196,0.464,0.763,14.526,21.118,41.443
0.149,0.564,0.770,9.094,11.658,39.063
0.164,0.571,0.819,7.568,7.263,33.875
0.215,0.560,0.809,2.502,5.005,28.381
0.190,0.540,0.711,-6.714,3.235,23.254
0.163,0.514,0.582,-12.329,3.235,17.273
0.153,0.461,0.461,-10.132,4.578,11.292
0.146,0.427,0.405,-0.916,5.737,6.165
0.144,0.428,0.448,11.597,7.080,3.235
0.116,0.453,0.553,23.621,5.310,1.343
0.087,0.511,0.685,31.311,2.563,0.061
0.042,0.514,0.852,33.936,-1.404,-1.160
0.064,0.543,0.947,28.381,-6.470,-5.798
0.094,0.483,0.989,20.203,-15.381,-8.423
0.166,0.421,0.987,11.780,-25.330,-7.874
0.239,0.340,0.945,4.456,-32.166,-5.127
0.281,0.275,0.888,1.465,-33.142,-2.563
0.324,0.227,0.837,2.686,-26.917,-1.038
0.347,0.218,0.826,7.080,-16.541,-0.610
0.307,0.241,0.838,12.451,-7.629,1.099
0.240,0.271,0.864,17.517,-0.244,2.991
0.171,0.306,0.894,20.935,5.798,2.808
0.135,0.335,0.939,22.583,9.460,2.625
0.118,0.355,0.972,21.057,10.376,2.930
0.109,0.367,0.973,17.151,8.545,3.113
0.120,0.370,0.958,12.268,5.920,2.686
0.138,0.372,0.933,8.240,3.723,2.380
0.160,0.352,0.898,5.127,1.221,2.869
0.211,0.328,0.880,2.441,0.305,4.211
0.250,0.328,0.867,1.038,-1.282,5.737
0.242,0.323,0.833,-0.305,-2.808,9.705
0.212,0.326,0.786,-0.244,-2.808,12.817
0.182,0.349,0.778,2.014,-0.916,13.306
0.150,0.357,0.777,4.883,0.549,13.245
0.146,0.381,0.785,7.446,1.404,11.719
0.147,0.394,0.816,9.460,2.197,9.888
0.128,0.418,0.870,10.132,0.854,8.911

-0.412,-0.697,1.469,40.161,-23.376,242.065
-0.433,-0.781,1.362,37.354,-12.207,245.911
-0.387,-0.841,1.268,43.457,-0.183,247.498
-0.279,-0.901,1.214,55.542,13.245,253.418
-0.197,-0.986,1.182,73.914,23.987,264.893
-0.170,-1.067,1.182,94.604,33.752,277.283
-0.240,-1.071,1.279,115.051,41.870,287.659
-0.361,-1.048,1.373,130.737,46.570,295.837
-0.502,-1.002,1.447,140.686,48.340,300.171
-0.541,-0.915,1.564,146.057,50.049,297.791
-0.513,-0.824,1.663,145.630,49.927,292.114
-0.429,-0.762,1.738,140.076,48.584,285.645
-0.313,-0.721,1.749,129.517,48.035,280.212
-0.287,-0.703,1.665,116.699,50.049,274.475
-0.144,-0.689,1.742,104.309,60.486,267.639
-0.130,-0.601,1.794,90.393,61.523,258.728
-0.226,-0.554,1.742,70.496,57.434,259.399
-0.363,-0.524,1.706,47.729,52.246,264.526
-0.533,-0.483,1.662,25.696,41.382,267.334
-0.690,-0.427,1.635,3.296,28.809,267.151
-0.828,-0.368,1.627,-17.517,14.282,265.137
-0.862,-0.280,1.605,-36.926,-1.953,258.301
-0.773,-0.254,1.553,-57.434,-15.442,253.967
-0.636,-0.254,1.394,-74.402,-25.635,255.249
-0.523,-0.296,1.258,-80.933,-29.907,256.958
-0.398,-0.344,1.264,-80.811,-15.686,258.850
-0.453,-0.486,1.162,-75.439,14.343,255.615
-0.602,-0.412,1.025,-62.256,62.927,230.042
-0.675,-0.365,1.202,-46.143,118.835,197.632
-0.829,-0.329,1.419,-31.982,145.569,183.472
-1.117,-0.262,1.527,-36.804,138.794,184.265
-1.470,-0.131,1.579,-57.190,117.554,185.852
-1.669,0.032,1.571,-80.627,90.393,177.734
-1.553,0.137,1.593,-104.370,58.655,165.405
-1.277,0.160,1.615,-129.883,17.395,165.894
-1.083,0.173,1.580,-160.583,-31.738,182.556
-1.047,0.232,1.449,-191.833,-67.444,201.111
-1.086,0.300,1.293,-213.928,-73.425,211.365
-1.109,0.347,1.156,-222.290,-55.847,213.928
-1.147,0.487,1.164,-215.820,-29.358,212.585
-1.319,0.581,1.284,-202.881,0.977,205.811
-1.840,0.718,1.234,-190.063,23.804,175.781
-2.264,1.071,1.365,-183.167,38.818,110.291
-2.438,1.245,1.651,-188.110,48.523,41.443
-2.380,1.171,1.825,-207.581,33.936,-19.958
-2.153,0.963,1.867,-245.728,-1.648,-69.702
-1.902,0.626,1.782,-287.964,-52.002,-104.004
-1.713,0.274,1.741,-322.571,-109.741,-121.765
-1.601,0.089,1.629,-343.628,-158.081,-126.892
-1.550,-0.139,1.409,-347.351,-173.706,-134.888
-1.689,-0.392,0.981,-331.726,-152.954,-162.659
-1.722,-0.586,0.555,-295.227,-99.182,-207.031
-1.661,-0.681,0.279,-243.103,-34.180,-254.333
-1.691,-0.776,0.095,-186.646,13.123,-293.457
-1.711,-0.838,0.034,-135.742,44.556,-325.012
-1.581,-0.915,0.105,-93.140,62.073,-351.868
-1.311,-0.948,0.209,-61.829,65.247,-369.629
-1.162,-1.107,0.295,-39.917,55.664,-375.366
-0.881,-1.149,0.474,-30.701,49.744,-375.305
-0.592,-1.156,0.680,-25.940,43.274,-369.202
-0.313,-1.079,0.927,-30.579,19.958,-360.962
-0.180,-0.997,1.006,-50.171,-15.198,-341.003
-0.178,-1.045,0.939,-75.806,-48.401,-313.049
-0.154,-1.041,0.853,-98.450,-77.576,-296.875
-0.024,-1.091,0.744,-115.295,-104.248,-290.344
0.074,-1.173,0.551,-123.901,-131.104,-286.133
0.247,-1.175,0.445,-121.643,-152.222,-278.992
0.377,-1.195,0.386,-105.286,-164.856,-263.916
0.458,-1.197,0.418,-79.407,-170.044,-251.160
0.504,-1.183,0.520,-50.354,-160.278,-246.033
0.613,-1.090,0.689,-24.902,-140.747,-241.638
0.628,-0.999,0.821,-3.296,-128.418,-232.361
0.623,-0.990,1.022,11.658,-120.728,-224.060
0.619,-0.890,1.158,12.817,-120.667,-218.811
0.693,-0.787,1.191,2.747,-127.258,-206.177
0.792,-0.766,1.116,-2.686,-136.047,-190.063
0.960,-0.817,1.100,1.221,-139.526,-173.767
1.117,-0.831,1.083,4.028,-136.414,-158.997
1.214,-0.838,1.082,9.399,-130.981,-146.057
1.301,-0.806,1.136,15.808,-126.404,-132.935
1.310,-0.702,1.175,20.813,-125.366,-116.211
1.302,-0.662,1.221,26.184,-123.779,-96.375
1.259,-0.612,1.163,30.151,-119.141,-79.102
1.263,-0.548,1.173,34.851,-112.854,-64.392
1.294,-0.415,1.245,40.955,-112.061,-48.279
1.215,-0.360,1.329,44.250,-116.211,-26.672
1.074,-0.303,1.429,42.114,-120.422,-7.507
0.958,-0.173,1.509,33.264,-118.713,5.432
0.775,-0.089,1.464,23.254,-109.253,14.526
0.706,-0.044,1.435,18.860,-89.661,14.099
0.698,-0.041,1.405,20.752,-64.453,11.169
0.653,0.026,1.344,25.757,-39.307,11.475
0.676,0.057,1.360,33.691,-13.428,15.747
0.522,0.198,1.327,44.434,-4.456,20.874
0.379,0.230,1.360,51.575,1.343,34.302
0.214,0.284,1.323,51.025,7.874,39.063
0.231,0.326,1.381,48.828,18.250,33.508
0.287,0.311,1.404,44.678,21.790,24.902
0.302,0.287,1.361,31.006,20.386,20.264
0.313,0.262,1.273,13.367,16.541,18.127
0.376,0.232,1.187,-3.296,13.733,17.334
0.435,0.187,1.086,-17.822,14.221,17.273
0.444,0.135,0.945,-29.053,19.348,17.273
0.425,0.050,0.789,-34.851,28.442,15.198
0.392,-0.032,0.640,-34.180,38.147,10.986
0.396,-0.091,0.554,-28.015,44.434,5.920
0.413,-0.148,0.526,-18.799,45.166,4.272
0.365,-0.166,0.545,-10.010,38.452,7.751
0.309,-0.119,0.563,-3.723,26.978,12.756
0.269,-0.077,0.635,2.075,11.963,16.663
0.280,-0.030,0.738,6.165,-1.587,20.020
0.315,0.024,0.839,6.592,-11.230,22.705
0.342,0.051,0.906,4.395,-17.639,24.597
0.360,0.084,0.917,0.549,-17.334,25.146
0.332,0.116,0.905,-1.526,-12.024,24.536
0.285,0.138,0.841,-1.221,-6.592,24.536
0.249,0.151,0.793,2.441,-3.723,26.489
0.203,0.186,0.788,9.521,-3.052,28.748
0.107,0.236,0.817,17.639,-4.028,30.823

-0.281,0.559,1.955,-33.691,64.758,193.481
-0.388,0.641,1.889,-61.523,56.396,194.580
-0.462,0.638,1.581,-86.975,54.260,193.420
-0.503,0.536,1.154,-98.206,62.744,188.843
-0.427,0.374,0.809,-91.064,89.294,177.124
-0.403,0.248,0.530,-65.674,126.038,161.743
-0.412,0.146,0.461,-28.198,165.955,149.231
-0.470,0.048,0.608,14.282,201.355,144.958
-0.681,0.025,0.863,53.711,218.567,143.188
-0.947,0.082,1.224,78.491,220.154,136.719
-1.120,0.194,1.619,83.435,212.646,126.038
-1.104,0.312,1.982,70.862,190.186,117.554
-0.981,0.358,2.208,42.114,152.100,122.864
-0.857,0.344,2.217,-0.610,112.061,141.296
-0.827,0.266,2.003,-43.823,79.163,159.851
-0.959,0.293,1.775,-74.402,59.937,173.950
-1.228,0.540,1.645,-92.346,53.894,181.396
-1.555,0.837,1.599,-102.600,57.678,175.781
-1.856,1.113,1.579,-116.089,63.049,155.640
-2.178,1.344,1.486,-138.733,58.044,124.939
-2.406,1.432,1.351,-166.138,39.429,87.402
-2.439,1.332,1.213,-192.078,11.169,44.067
-2.237,1.010,1.023,-212.158,-23.437,-3.174
-1.803,0.623,0.837,-225.769,-56.274,-49.011
-1.447,0.294,0.705,-229.492,-83.923,-85.388
-1.224,0.065,0.691,-222.595,-103.394,-111.877
-1.065,-0.069,0.808,-208.801,-111.267,-131.470
-1.088,-0.176,0.964,-194.763,-109.070,-147.644
-1.260,-0.261,0.878,-186.096,-94.177,-169.739
-1.285,-0.138,0.972,-177.917,-72.083,-198.547
-1.651,-0.415,0.885,-164.307,-68.237,-214.355
-1.634,-0.381,0.835,-156.128,-48.157,-247.681
-1.638,-0.503,0.777,-145.691,-33.203,-283.813
-1.538,-0.631,0.765,-131.165,-28.259,-308.777
-1.381,-0.757,0.668,-120.117,-30.396,-321.045
-1.192,-0.892,0.508,-107.422,-33.264,-325.928
-0.912,-0.974,0.389,-88.928,-28.198,-331.970
-0.654,-0.979,0.317,-66.284,-19.348,-334.351
-0.481,-0.994,0.317,-42.969,-9.216,-330.200
-0.346,-0.949,0.448,-23.865,0.305,-325.806
-0.256,-0.882,0.666,-14.771,2.258,-319.946
-0.199,-0.832,0.881,-19.897,-6.958,-310.974
-0.126,-0.778,1.138,-39.063,-29.053,-303.406
-0.038,-0.698,1.323,-71.960,-69.580,-291.443
-0.013,-0.674,1.291,-112.671,-120.483,-270.508
-0.042,-0.723,0.965,-143.066,-161.865,-250.671
0.019,-0.839,0.705,-150.696,-182.068,-242.981
0.213,-0.906,0.551,-141.479,-186.890,-245.667
0.371,-0.944,0.469,-122.803,-185.852,-245.056
0.521,-0.949,0.461,-96.619,-179.565,-237.793
0.646,-0.934,0.574,-66.650,-167.297,-230.164
0.757,-0.886,0.741,-38.818,-154.663,-222.778
0.782,-0.808,0.917,-21.179,-143.677,-211.487
0.782,-0.720,1.059,-11.902,-136.108,-199.890
0.780,-0.641,1.147,-10.559,-131.775,-187.744
0.793,-0.596,1.222,-12.756,-130.371,-175.476
0.827,-0.570,1.259,-17.456,-131.653,-163.391
0.891,-0.551,1.288,-24.414,-131.287,-151.184
0.933,-0.564,1.277,-29.358,-130.310,-139.648
0.952,-0.534,1.320,-32.776,-128.540,-129.211
0.955,-0.487,1.349,-39.429,-129.333,-116.455
0.997,-0.461,1.346,-47.852,-131.287,-101.746
1.015,-0.444,1.257,-56.030,-132.751,-88.135
1.033,-0.432,1.174,-60.242,-133.911,-76.843
1.071,-0.377,1.111,-61.768,-133.423,-64.209
1.044,-0.313,1.050,-59.509,-132.996,-50.964
1.002,-0.266,0.986,-55.115,-130.676,-37.476
0.951,-0.219,0.927,-47.302,-120.850,-24.414
0.912,-0.195,0.955,-32.898,-104.858,-15.442
0.861,-0.165,1.033,-17.090,-89.050,-8.545
0.815,-0.157,1.115,-3.479,-76.477,-1.038
0.844,-0.149,1.213,10.010,-62.561,5.676
0.966,-0.167,1.328,22.766,-47.180,11.902
0.924,-0.253,1.382,31.189,-33.325,20.081
0.957,-0.127,1.506,31.555,-19.165,28.137
0.735,-0.199,1.466,27.954,-15.564,43.396
0.571,-0.098,1.402,18.494,-10.925,45.227
0.665,-0.040,1.532,7.812,-2.563,43.518
0.624,0.174,1.566,-1.892,-20.996,52.917
0.273,0.062,1.352,-17.517,-47.424,83.069
0.076,0.197,1.095,-37.415,-41.809,82.886
0.098,0.297,0.942,-40.894,-18.250,62.378
0.191,0.299,0.874,-25.818,-0.610,48.950
0.194,0.324,0.790,-11.902,9.644,45.715
0.096,0.375,0.769,2.625,12.939,47.302
-0.003,0.452,0.823,18.250,15.076,47.852
-0.072,0.519,0.894,30.640,16.357,43.640
-0.118,0.564,0.942,36.682,15.320,37.659
-0.103,0.563,1.004,38.086,13.062,30.457
0.001,0.579,1.103,34.790,10.559,22.034
0.099,0.556,1.155,26.184,6.531,16.235
0.141,0.508,1.127,14.221,0.427,14.526
0.126,0.468,1.067,2.808,-4.822,14.587
0.098,0.424,0.975,-4.822,-9.399,14.526
0.120,0.391,0.896,-8.301,-12.817,13.062
0.158,0.358,0.830,-8.545,-14.709,12.634
0.166,0.322,0.757,-5.676,-14.465,13.550
0.162,0.311,0.699,0.000,-10.315,12.878
0.180,0.321,0.702,8.240,-2.930,10.010
0.174,0.313,0.729,16.785,2.869,8.423
0.169,0.330,0.770,22.461,6.531,7.507
0.163,0.341,0.825,25.452,8.423,7.751
0.100,0.366,0.868,26.245,9.338,8.179
0.076,0.344,0.898,25.452,11.658,6.470
0.094,0.359,0.966,23.132,14.282,2.686
0.092,0.362,1.001,17.395,10.742,1.465
0.068,0.367,0.990,9.460,4.028,2.991
0.082,0.358,0.962,3.052,-1.038,3.113
0.121,0.340,0.948,-0.977,-3.052,1.587
0.148,0.323,0.922,-4.395,-3.784,1.160
0.163,0.303,0.883,-6.592,-3.784,2.380
0.166,0.279,0.847,-6.775,-2.502,3.601
0.191,0.274,0.826,-4.639,0.732,4.089
0.163,0.259,0.789,-1.648,4.150,5.798
0.235,0.318,0.882,1.831,5.188,8.057
0.112,0.226,0.891,3.662,-1.099,15.381
0.059,0.286,0.882,2.014,1.221,15.381
0.043,0.315,0.886,1.221,7.141,9.338
0.085,0.328,0.935,3.662,10.254,4.578

0.162,-0.903,1.670,142.883,-70.557,192.871
0.190,-0.880,1.851,138.367,-60.120,199.707
0.234,-0.857,1.973,130.981,-46.936,208.374
0.303,-0.857,2.049,121.643,-28.076,214.294
0.304,-0.873,2.064,110.962,-10.620,218.140
0.241,-0.856,2.026,99.915,2.686,222.839
0.149,-0.825,1.998,90.881,13.916,226.257
0.035,-0.760,1.989,83.923,20.142,227.539
-0.092,-0.692,1.931,76.660,20.874,227.600
-0.159,-0.602,1.901,70.251,19.043,225.342
-0.164,-0.513,1.931,63.843,16.846,222.229
-0.131,-0.412,2.036,55.481,14.526,221.008
-0.078,-0.271,2.189,43.091,15.320,222.473
-0.062,-0.125,2.325,24.841,20.020,225.159
-0.094,0.024,2.432,0.610,28.503,229.431
-0.182,0.122,2.452,-26.672,41.382,233.887
-0.345,0.148,2.292,-55.298,56.885,232.361
-0.433,0.157,2.084,-80.383,77.820,221.252
-0.424,0.160,1.828,-97.961,97.229,206.055
-0.386,0.126,1.541,-108.276,107.788,194.580
-0.393,0.098,1.178,-113.770,109.619,187.744
-0.359,0.109,0.940,-108.582,103.088,182.617
-0.383,0.012,0.784,-94.910,90.576,183.594
-0.320,0.008,0.742,-84.290,77.332,188.049
-0.279,-0.063,0.866,-77.515,60.547,200.317
-0.385,-0.179,1.028,-76.477,37.842,218.994
-0.713,-0.219,1.233,-84.717,14.709,239.258
-1.030,-0.269,1.329,-100.708,6.897,255.310
-1.183,-0.368,1.304,-112.793,18.127,259.827
-1.200,-0.463,1.239,-117.065,38.513,253.174
-1.238,-0.402,1.056,-113.708,53.772,244.751
-1.429,-0.370,0.918,-105.408,58.594,243.591
-1.741,-0.233,0.763,-95.581,54.443,244.263
-1.974,0.083,0.718,-86.609,49.744,239.197
-2.147,0.466,0.739,-78.979,44.373,226.501
-2.315,0.952,0.752,-79.956,38.269,205.750
-2.500,1.534,0.804,-86.731,35.095,177.063
-2.870,1.919,0.748,-93.506,33.447,138.733
-3.238,2.168,0.920,-96.558,40.466,83.191
-3.500,1.979,0.990,-97.839,51.636,11.047
-2.776,1.355,1.012,-97.656,60.059,-77.393
-1.707,0.740,0.965,-109.375,54.321,-148.926
-1.177,0.213,0.824,-126.404,17.151,-179.077
-0.989,-0.114,0.615,-139.587,-24.536,-183.655
-0.827,-0.256,0.650,-140.686,-48.645,-183.472
-0.801,-0.374,0.759,-132.629,-60.730,-183.899
-1.020,-0.307,0.807,-124.817,-62.500,-192.444
-1.276,-0.216,0.814,-120.361,-50.049,-210.083
-1.491,-0.186,0.787,-114.380,-33.203,-231.689
-1.601,-0.214,0.765,-107.727,-18.982,-257.141
-1.619,-0.327,0.669,-101.746,-5.676,-283.203
-1.371,-0.336,0.744,-97.351,8.423,-306.091
-1.459,-0.572,0.614,-93.872,5.127,-317.505
-1.284,-0.596,0.598,-91.431,5.676,-331.360
-1.048,-0.626,0.532,-88.989,2.869,-339.111
-0.847,-0.698,0.477,-81.299,-9.460,-335.632
-0.715,-0.754,0.425,-70.679,-22.888,-325.623
-0.666,-0.780,0.445,-57.556,-33.936,-318.665
-0.611,-0.779,0.531,-45.715,-40.833,-315.491
-0.523,-0.757,0.617,-40.466,-47.485,-310.974
-0.488,-0.773,0.635,-40.710,-59.692,-305.725
-0.437,-0.780,0.629,-43.701,-73.914,-303.040
-0.374,-0.828,0.654,-44.922,-87.158,-300.537
-0.294,-0.862,0.715,-43.335,-97.717,-297.668
-0.224,-0.897,0.792,-41.565,-106.262,-295.105
-0.161,-0.895,0.856,-40.710,-114.929,-289.856
-0.149,-0.919,0.900,-38.879,-122.437,-282.898
-0.092,-0.980,0.950,-34.485,-126.709,-277.832
0.089,-1.024,1.008,-31.250,-125.610,-275.024
0.357,-1.028,1.112,-29.846,-125.916,-269.226
0.560,-1.013,1.132,-31.372,-129.395,-252.869
0.626,-0.999,1.084,-32.593,-132.324,-230.896
0.578,-0.987,1.036,-30.884,-132.751,-212.097
0.549,-0.945,1.027,-24.475,-128.540,-197.144
0.564,-0.912,1.043,-14.832,-123.047,-181.763
0.602,-0.897,1.094,-4.333,-116.943,-167.786
0.638,-0.858,1.164,3.357,-112.122,-156.372
0.734,-0.808,1.278,8.179,-105.042,-142.761
0.812,-0.770,1.404,11.169,-95.276,-126.587
0.876,-0.724,1.507,10.986,-83.374,-109.070
0.915,-0.685,1.547,6.470,-69.824,-91.675
0.927,-0.632,1.543,-1.099,-58.167,-76.843
0.907,-0.559,1.531,-11.658,-52.795,-61.890
0.920,-0.485,1.556,-23.254,-56.274,-46.814
0.916,-0.390,1.549,-39.001,-68.420,-28.625
0.828,-0.295,1.475,-54.626,-82.031,-7.935
0.748,-0.182,1.354,-63.232,-86.670,8.911
0.665,-0.079,1.270,-61.646,-80.322,21.545
0.674,0.045,1.292,-49.805,-67.993,32.410
0.624,0.073,1.315,-30.762,-50.354,40.588
0.834,0.286,1.548,-15.564,-23.254,43.884
0.701,0.221,1.692,-5.188,-14.465,60.852
0.366,0.234,1.688,-6.958,-0.916,67.505
0.303,0.385,1.705,-18.250,38.208,52.856
0.373,0.358,1.738,-26.123,71.045,37.231
0.306,0.241,1.583,-37.842,82.397,38.513
0.264,0.252,1.408,-56.335,77.454,46.448
0.046,0.218,1.078,-70.068,54.749,58.167
-0.125,0.169,0.714,-76.477,47.729,62.927
-0.030,0.277,0.502,-73.730,56.580,47.607
0.147,0.326,0.461,-58.472,58.105,33.386
0.250,0.269,0.450,-40.283,47.241,31.555
0.299,0.229,0.428,-28.564,34.790,35.522
0.325,0.224,0.441,-19.043,24.353,38.025
0.358,0.195,0.519,-7.080,14.587,40.283
0.373,0.178,0.604,3.052,6.409,43.762
0.336,0.174,0.656,8.667,-0.061,45.288
0.295,0.208,0.708,13.245,-4.272,42.664
0.314,0.245,0.775,18.066,-7.324,38.757
0.327,0.286,0.854,21.973,-11.108,37.842
0.300,0.324,0.891,23.987,-14.648,37.537
0.247,0.389,0.924,24.841,-14.038,35.400
0.218,0.412,0.936,26.489,-10.620,32.349
0.205,0.422,0.944,28.992,-6.592,29.846
0.173,0.442,0.938,32.043,-3.113,28.259
0.131,0.461,0.950,35.950,1.465,26.733
0.111,0.476,0.977,39.673,7.385,24.292
0.086,0.494,1.020,41.748,12.024,21.545
0.044,0.507,1.047,41.077,13.367,18.555

-0.618,0.792,1.944,62.073,161.865,175.293
-0.531,0.966,2.263,67.139,172.485,163.391
-0.428,1.026,2.409,50.415,168.335,159.119
-0.277,0.986,2.385,18.188,153.076,161.316
-0.135,0.899,2.194,-21.057,132.874,168.030
-0.012,0.725,2.060,-57.251,114.563,176.453
-0.133,0.483,1.922,-89.417,94.055,179.687
-0.420,0.557,1.646,-122.498,63.171,170.105
-0.630,0.480,1.420,-149.719,33.020,168.762
-0.879,0.419,1.002,-161.682,-0.244,171.082
-1.061,0.398,0.561,-158.081,-16.174,168.518
-1.190,0.420,0.353,-128.235,-4.028,155.212
-1.328,0.438,0.315,-80.872,29.968,135.681
-1.226,0.428,0.393,-28.809,87.708,109.070
-1.070,0.377,0.643,21.362,152.283,81.421
-1.038,0.373,0.916,54.443,196.716,66.406
-1.139,0.377,1.137,64.392,209.656,65.430
-1.329,0.454,1.212,56.030,191.528,73.364
-1.551,0.619,1.253,36.987,148.010,87.036
-1.813,0.977,1.388,17.273,88.013,100.037
-2.031,1.439,1.684,-4.333,25.146,101.868
-2.270,1.838,1.974,-37.231,-21.179,91.187
-2.609,2.109,2.107,-86.426,-50.293,64.331
-3.068,2.049,1.923,-143.372,-65.430,18.250
-3.208,1.524,1.241,-192.322,-75.806,-48.462
-2.517,0.826,0.782,-213.989,-76.538,-124.878
-1.809,0.294,0.501,-211.548,-81.604,-177.612
-1.655,-0.066,0.366,-197.632,-97.900,-203.857
-1.612,-0.225,0.360,-175.964,-100.281,-223.938
-1.568,-0.355,0.321,-148.743,-83.130,-249.573
-1.631,-0.542,0.337,-115.234,-53.894,-280.823
-1.631,-0.525,0.514,-81.360,-23.560,-311.279
-1.864,-0.802,0.648,-52.185,-8.423,-331.726
-1.680,-0.796,0.916,-40.588,11.841,-363.953
-1.559,-0.971,1.044,-43.701,12.817,-381.714
-1.388,-1.085,1.037,-56.519,-1.526,-381.592
-1.314,-1.187,0.940,-75.012,-24.231,-372.253
-1.221,-1.256,0.786,-90.454,-49.316,-362.061
-1.065,-1.330,0.530,-101.196,-66.589,-356.384
-0.850,-1.412,0.361,-99.182,-75.989,-354.187
-0.594,-1.456,0.327,-85.083,-84.167,-348.938
-0.362,-1.443,0.420,-69.153,-89.111,-338.074
-0.259,-1.369,0.553,-59.143,-89.417,-327.820
-0.275,-1.270,0.687,-56.580,-89.661,-318.970
-0.296,-1.147,0.749,-61.523,-95.947,-308.472
-0.300,-1.066,0.714,-69.092,-109.375,-296.082
-0.262,-1.077,0.615,-72.388,-117.920,-286.926
-0.162,-1.058,0.559,-69.397,-118.408,-285.645
-0.011,-1.101,0.565,-62.439,-121.094,-284.058
0.269,-1.118,0.691,-56.091,-126.892,-276.794
0.467,-1.109,0.773,-54.321,-137.939,-261.963
0.524,-1.103,0.794,-55.176,-150.146,-243.103
0.547,-1.089,0.782,-55.054,-157.471,-226.135
0.490,-1.059,0.732,-51.025,-164.001,-212.891
0.539,-1.005,0.788,-41.870,-168.213,-198.975
0.642,-0.940,0.876,-30.884,-167.664,-183.167
0.674,-0.913,0.911,-21.362,-164.307,-168.640
0.730,-0.892,0.937,-11.963,-158.081,-155.151
0.849,-0.843,1.005,-0.183,-149.536,-140.564
0.928,-0.824,1.082,13.245,-139.282,-124.084
0.955,-0.784,1.206,26.794,-127.441,-107.910
0.977,-0.690,1.356,37.720,-114.258,-93.872
0.998,-0.615,1.522,46.204,-106.079,-81.604
1.054,-0.512,1.674,48.950,-102.722,-69.153
1.056,-0.464,1.768,46.936,-101.685,-55.176
1.029,-0.357,1.897,41.565,-102.112,-43.152
0.984,-0.259,1.943,30.090,-105.469,-31.494
0.904,-0.240,1.828,15.686,-109.253,-21.057
0.858,-0.208,1.700,6.653,-109.314,-14.709
0.857,-0.181,1.634,5.432,-105.286,-6.897
0.768,-0.209,1.539,8.728,-95.215,-0.183
1.059,-0.022,1.656,11.597,-72.083,0.610
0.955,-0.156,1.652,14.465,-58.838,17.273
0.805,-0.077,1.538,12.390,-44.922,28.320
0.573,-0.156,1.386,8.850,-22.339,32.837
0.402,-0.137,1.229,8.057,2.747,25.146
0.599,0.023,1.421,8.057,27.832,21.362
0.468,0.053,1.545,6.287,13.184,42.603
0.084,0.048,1.457,-5.371,-18.921,75.745
-0.139,0.196,1.246,-25.879,-32.104,78.857
-0.102,0.247,1.095,-32.349,-25.085,61.218
0.111,0.197,1.044,-28.137,-10.986,43.823
0.227,0.229,0.957,-25.391,-2.197,34.790
0.230,0.233,0.880,-18.372,3.113,34.302
0.202,0.231,0.865,-6.348,13.184,36.072
0.142,0.243,0.879,5.859,24.231,36.316
0.071,0.250,0.861,15.686,32.166,33.081
0.035,0.293,0.868,23.071,35.828,26.428
0.059,0.332,0.948,28.259,34.973,21.240
0.070,0.375,1.026,29.114,28.137,20.325
0.031,0.383,1.062,24.780,19.653,20.935
-0.020,0.387,1.041,16.418,12.878,19.775
-0.026,0.356,0.973,7.324,7.996,16.235
0.032,0.317,0.906,0.488,3.723,11.841
0.085,0.275,0.856,-3.235,-1.587,9.644
0.093,0.249,0.801,-4.822,-6.287,10.315
0.095,0.219,0.752,-4.089,-7.874,10.803
0.100,0.202,0.738,-0.244,-7.019,9.521
0.110,0.203,0.779,3.845,-4.700,8.667
0.160,0.218,0.827,6.714,1.404,7.324
0.184,0.200,0.845,8.301,8.728,5.188
0.156,0.195,0.860,8.179,13.977,5.371
0.118,0.187,0.870,7.996,16.968,6.409
0.106,0.183,0.903,7.446,17.761,6.592
0.108,0.188,0.936,5.249,15.259,6.958
0.085,0.192,0.941,1.770,9.644,8.850
0.070,0.188,0.920,-2.686,3.540,10.437
0.085,0.176,0.904,-5.920,-0.366,11.047
0.120,0.167,0.894,-8.667,-2.625,11.230
0.132,0.147,0.866,-10.925,-3.967,11.719
0.166,0.148,0.884,-11.841,-4.395,12.451
0.264,0.187,0.950,-11.902,-3.601,13.184
0.108,0.135,0.903,-11.108,-11.536,19.775
0.073,0.177,0.858,-12.695,-11.475,23.315
0.121,0.194,0.840,-14.282,-3.174,15.869
0.210,0.185,0.870,-9.766,3.723,11.292
0.216,0.180,0.881,-7.751,4.822,14.709
0.109,0.169,0.851,-6.775,0.000,20.691
0.081,0.185,0.842,-5.493,0.366,21.729

0.704,-0.997,1.085,145.447,51.270,183.044
0.662,-1.036,1.131,149.170,57.922,198.547
0.566,-1.053,1.164,148.437,54.382,215.637
0.436,-1.046,1.184,143.311,42.786,232.788
0.288,-0.978,1.227,134.888,27.710,247.009
0.222,-0.879,1.269,124.939,17.212,256.409
0.205,-0.793,1.342,114.014,10.803,258.484
0.193,-0.681,1.419,99.792,4.578,258.545
0.231,-0.552,1.496,84.229,0.061,258.911
0.290,-0.507,1.532,69.763,-3.784,257.996
0.337,-0.463,1.539,54.871,-7.446,255.493
0.373,-0.397,1.588,40.588,-10.010,251.648
0.392,-0.325,1.680,27.100,-12.024,247.559
0.330,-0.237,1.771,11.353,-14.587,244.141
0.216,-0.109,1.853,-6.165,-14.832,239.441
0.122,0.015,1.878,-22.949,-13.367,230.713
0.027,0.095,1.832,-35.950,-15.442,217.896
-0.100,0.188,1.789,-45.410,-14.832,205.444
-0.200,0.297,1.808,-48.218,-7.263,196.899
-0.243,0.433,1.878,-43.152,4.028,188.477
-0.251,0.568,1.954,-35.339,21.057,178.223
-0.178,0.671,1.971,-28.625,42.969,167.786
-0.145,0.636,1.888,-24.170,62.134,158.875
-0.124,0.589,1.878,-23.193,77.332,148.071
-0.166,0.620,2.019,-28.931,86.121,137.878
-0.400,0.694,2.154,-46.509,83.069,133.240
-0.742,0.740,2.205,-79.651,70.007,131.348
-0.990,0.752,2.058,-123.779,45.776,126.038
-1.087,0.609,1.657,-168.518,6.775,118.958
-0.971,0.392,1.185,-202.271,-35.767,113.281
-0.702,0.204,0.690,-214.355,-69.885,115.784
-0.433,0.036,0.307,-198.730,-89.661,130.554
-0.388,-0.094,0.115,-158.386,-87.280,153.259
-0.531,-0.216,0.037,-101.746,-54.749,173.584
-0.810,-0.278,0.086,-36.377,9.766,180.664
-1.087,-0.196,0.359,32.043,91.431,169.617
-1.371,-0.060,0.824,93.689,161.133,150.269
-1.563,0.170,1.430,128.967,201.355,131.348
-1.634,0.417,1.969,124.207,202.332,118.286
-1.699,0.725,2.215,82.642,161.194,114.197
-1.889,1.031,2.137,23.193,98.999,119.568
-2.169,1.427,2.052,-30.945,43.274,120.361
-2.508,1.802,1.925,-74.951,13.123,101.990
-2.856,2.132,2.011,-109.741,5.188,57.861
-3.287,1.951,1.845,-147.705,8.118,-3.967
-2.965,1.282,1.318,-188.721,10.864,-85.754
-1.959,0.599,0.833,-221.558,5.249,-158.081
-1.440,0.124,0.377,-239.014,-29.846,-185.669
-1.370,-0.253,0.021,-233.521,-75.684,-186.768
-1.299,-0.414,-0.076,-207.825,-93.018,-195.190
-1.206,-0.502,-0.017,-170.105,-83.557,-216.797
-1.166,-0.546,0.119,-133.606,-61.707,-240.295
-1.209,-0.548,0.258,-104.309,-38.940,-259.521
-1.288,-0.562,0.366,-82.336,-19.653,-275.513
-1.353,-0.611,0.430,-67.139,-4.272,-290.771
-1.378,-0.669,0.487,-55.725,7.935,-304.626
-1.333,-0.750,0.496,-47.119,18.250,-316.162
-1.226,-0.844,0.525,-40.833,27.649,-326.721
-1.096,-0.902,0.601,-38.940,31.738,-335.205
-0.957,-0.927,0.643,-43.579,26.001,-335.999
-0.872,-0.970,0.562,-52.490,11.414,-329.468
-0.815,-1.004,0.442,-58.838,-6.226,-322.266
-0.697,-1.037,0.367,-59.021,-22.278,-317.200
-0.548,-1.051,0.303,-53.894,-35.461,-312.012
-0.399,-1.062,0.298,-45.349,-44.312,-307.312
-0.317,-1.059,0.328,-35.095,-52.002,-302.063
-0.273,-1.016,0.401,-25.635,-60.059,-296.387
-0.255,-0.982,0.467,-18.005,-70.251,-290.405
-0.251,-0.963,0.569,-12.268,-82.703,-284.119
-0.164,-0.933,0.744,-10.376,-94.543,-279.053
-0.069,-0.889,0.873,-14.893,-108.215,-271.606
0.008,-0.917,0.868,-22.278,-118.835,-261.841
0.142,-0.966,0.858,-27.527,-122.681,-256.897
0.264,-0.952,0.888,-30.396,-126.404,-252.319
0.358,-0.930,0.899,-31.677,-135.742,-240.295
0.402,-0.940,0.884,-31.433,-145.203,-223.816
0.449,-0.932,0.900,-26.550,-147.766,-212.036
0.499,-0.931,0.915,-18.311,-144.348,-203.918
0.558,-0.898,0.960,-8.118,-138.123,-194.946
0.586,-0.869,1.034,3.296,-133.850,-183.105
0.590,-0.827,1.166,12.634,-132.324,-168.823
0.639,-0.776,1.305,18.372,-130.066,-154.602
0.747,-0.745,1.437,19.958,-125.305,-140.564
0.845,-0.717,1.541,17.456,-118.958,-125.977
0.922,-0.702,1.645,10.986,-109.985,-111.633
0.905,-0.645,1.780,0.427,-103.333,-98.450
0.934,-0.554,1.894,-19.226,-103.394,-87.341
0.983,-0.496,1.951,-47.363,-112.732,-73.792
1.005,-0.474,1.953,-78.552,-130.493,-58.105
1.078,-0.483,1.873,-111.633,-147.095,-43.213
1.175,-0.411,1.713,-142.273,-157.288,-29.419
1.199,-0.390,1.499,-165.710,-156.921,-15.015
1.122,-0.417,1.136,-177.551,-145.386,-1.160
1.037,-0.296,0.977,-172.852,-125.854,13.977
0.961,-0.217,0.701,-149.719,-100.830,27.039
1.004,0.020,0.808,-120.422,-53.162,42.603
0.647,-0.056,0.897,-75.500,-39.795,78.613
0.311,0.205,0.936,-45.227,-17.334,91.125
0.101,0.419,1.150,-23.865,14.648,89.478
-0.013,0.531,1.378,-6.592,32.349,85.388
0.022,0.722,1.602,-6.470,38.757,81.909
-0.066,0.686,1.702,-20.264,34.851,86.365
-0.184,0.645,1.650,-40.955,31.555,82.825
-0.215,0.586,1.506,-62.012,39.124,64.331
-0.123,0.480,1.327,-74.219,52.185,40.039
0.048,0.388,1.174,-77.576,58.838,22.095
0.179,0.262,0.993,-75.500,52.246,16.235
0.227,0.168,0.800,-68.970,37.659,19.409
0.239,0.141,0.653,-57.129,25.391,24.902
0.238,0.137,0.604,-38.330,16.113,28.992
0.227,0.193,0.587,-18.250,8.301,32.288
0.198,0.247,0.661,-2.930,4.272,37.537
0.145,0.347,0.745,7.080,1.038,41.626
0.112,0.439,0.822,12.268,-2.014,43.335
0.078,0.481,0.856,14.221,-3.113,42.603
0.030,0.526,0.862,13.977,-4.089,37.903
-0.002,0.557,0.847,12.329,-6.470,32.410
-0.034,0.563,0.806,10.681,-13.000,28.442
-0.046,0.552,0.759,9.216,-19.531,25.391

-0.344,-1.034,1.374,114.990,-111.816,205.322
-0.368,-1.052,1.496,113.281,-112.366,217.285
-0.429,-1.035,1.609,108.154,-110.046,228.088
-0.508,-1.002,1.698,99.792,-106.873,236.877
-0.540,-0.994,1.781,88.196,-100.830,244.995
-0.529,-0.968,1.829,73.547,-89.294,251.465
-0.543,-0.965,1.853,60.242,-73.059,256.042
-0.567,-0.950,1.812,48.828,-53.467,257.812
-0.642,-0.950,1.744,40.222,-35.217,259.094
-0.725,-0.942,1.736,36.682,-20.752,261.230
-0.814,-0.850,1.819,34.607,-9.583,264.404
-0.942,-0.732,1.882,31.189,-3.967,268.066
-1.093,-0.598,1.978,25.452,-1.099,270.630
-1.151,-0.421,2.123,15.686,2.502,272.522
-1.184,-0.291,2.217,0.732,8.057,274.109
-1.188,-0.198,2.223,-18.616,16.907,273.254
-1.153,-0.174,2.167,-38.940,27.283,270.508
-1.077,-0.196,2.081,-57.556,37.842,268.433
-1.026,-0.193,1.983,-74.646,49.500,268.738
-0.985,-0.232,1.929,-89.783,64.087,268.616
-1.043,-0.254,1.864,-104.370,77.209,264.648
-1.174,-0.217,1.775,-120.300,83.862,252.380
-1.318,-0.187,1.710,-136.536,86.182,239.502
-1.386,-0.125,1.639,-154.663,86.548,223.511
-1.425,-0.121,1.537,-174.622,86.182,206.909
-1.392,-0.159,1.437,-193.787,83.008,192.688
-1.434,-0.253,1.195,-209.045,77.515,185.059
-1.308,-0.260,1.088,-218.506,83.191,178.223
-1.310,-0.283,0.969,-221.436,87.280,176.147
-1.360,-0.276,0.879,-219.666,95.276,178.406
-1.456,-0.237,0.869,-218.018,110.229,177.368
-1.537,-0.163,0.919,-218.445,120.667,172.058
-1.644,-0.088,0.962,-228.333,122.253,165.466
-1.789,0.001,0.973,-250.427,108.643,157.227
-1.913,0.170,0.873,-283.875,80.017,146.179
-2.034,0.368,0.671,-322.021,38.818,132.263
-2.111,0.521,0.394,-355.225,-6.348,115.723
-2.139,0.612,0.015,-376.770,-45.227,91.614
-2.144,0.677,-0.382,-379.272,-72.632,55.908
-2.108,0.681,-0.663,-358.643,-90.149,12.329
-2.045,0.651,-0.802,-317.749,-98.633,-30.579
-1.926,0.608,-0.743,-262.817,-98.450,-72.266
-1.743,0.546,-0.502,-203.552,-88.074,-111.938
-1.602,0.388,-0.237,-149.780,-73.364,-145.630
-1.499,0.289,0.022,-108.337,-55.786,-174.744
-1.471,0.219,0.365,-73.608,-35.889,-201.904
-1.329,0.145,0.569,-53.955,-23.682,-223.450
-1.206,0.055,0.618,-52.490,-22.766,-238.647
-1.142,-0.027,0.599,-54.932,-30.151,-247.253
-1.168,-0.117,0.538,-55.481,-39.612,-251.709
-1.238,-0.188,0.522,-52.795,-47.241,-257.385
-1.254,-0.259,0.539,-47.546,-51.453,-265.564
-1.219,-0.331,0.524,-41.626,-54.199,-274.475
-1.158,-0.393,0.501,-35.278,-57.800,-281.494
-1.115,-0.464,0.492,-26.062,-62.622,-283.813
-1.016,-0.476,0.536,-15.015,-65.125,-284.851
-0.940,-0.472,0.564,-7.629,-67.383,-282.959
-0.925,-0.485,0.558,-3.296,-68.909,-282.532
-0.874,-0.463,0.535,-0.671,-70.801,-285.828
-0.806,-0.455,0.505,0.000,-75.012,-288.391
-0.784,-0.489,0.426,1.465,-83.740,-289.551
-0.705,-0.510,0.414,4.822,-97.107,-290.466
-0.599,-0.536,0.450,9.216,-116.760,-288.452
-0.505,-0.567,0.482,13.062,-140.503,-281.982
-0.402,-0.616,0.557,19.287,-161.621,-273.804
-0.248,-0.634,0.679,24.109,-176.636,-265.259
-0.080,-0.633,0.788,27.649,-186.646,-255.066
0.059,-0.646,0.869,29.846,-192.261,-243.530
0.150,-0.627,0.908,31.311,-195.557,-230.042
0.186,-0.594,0.939,34.546,-194.946,-214.050
0.194,-0.564,0.976,41.077,-190.735,-199.585
0.223,-0.536,1.004,47.607,-184.021,-189.026
0.217,-0.510,1.064,52.856,-178.406,-181.091
0.181,-0.471,1.149,56.030,-176.270,-174.438
0.185,-0.416,1.249,54.871,-175.781,-166.870
0.209,-0.373,1.391,52.673,-177.551,-157.471
0.252,-0.308,1.550,46.082,-181.213,-147.888
0.298,-0.250,1.644,31.494,-185.608,-136.902
0.378,-0.201,1.699,12.451,-189.392,-125.549
0.467,-0.171,1.679,-9.155,-191.711,-115.662
0.502,-0.205,1.538,-31.677,-194.275,-106.750
0.538,-0.264,1.350,-49.805,-195.312,-98.816
0.548,-0.309,1.231,-57.739,-196.472,-87.830
0.532,-0.344,1.168,-56.213,-198.303,-73.120
0.448,-0.325,1.192,-46.936,-198.730,-54.688
0.343,-0.267,1.365,-32.043,-194.336,-35.278
0.253,-0.136,1.608,-20.752,-187.073,-17.883
0.100,-0.085,1.738,-19.897,-176.758,-3.967
0.377,0.258,2.063,-31.189,-152.222,0.305
0.151,0.177,2.060,-44.373,-156.067,19.775
-0.152,0.272,1.784,-63.660,-155.212,24.719
-0.109,0.353,1.685,-79.285,-126.099,12.695
-0.171,0.234,1.497,-79.956,-96.802,6.775
-0.149,0.294,1.400,-74.097,-69.702,6.287
-0.176,0.375,1.319,-62.866,-51.575,12.695
-0.295,0.475,1.260,-45.105,-41.077,28.870
-0.442,0.580,1.244,-27.100,-28.442,44.800
-0.543,0.683,1.268,-11.169,-14.771,49.744
-0.601,0.778,1.291,-0.793,-1.953,47.791
-0.601,0.858,1.291,2.502,10.498,41.260
-0.612,0.891,1.254,0.488,19.592,32.776
-0.624,0.894,1.198,-4.822,22.034,24.231
-0.587,0.854,1.104,-11.658,19.836,16.479
-0.548,0.785,0.992,-17.273,14.526,9.521
-0.463,0.726,0.868,-20.264,9.766,2.380
-0.369,0.659,0.732,-18.738,6.287,-1.587
-0.288,0.601,0.644,-12.024,6.348,-2.441
-0.220,0.567,0.594,-2.502,10.254,-1.282
-0.183,0.552,0.583,7.080,15.259,2.258
-0.198,0.545,0.592,14.832,20.813,6.897
-0.221,0.541,0.602,20.325,26.672,8.606
-0.213,0.536,0.620,23.376,29.724,7.629
-0.248,0.495,0.625,23.804,27.954,9.094
-0.262,0.480,0.615,20.691,25.513,8.057
-0.226,0.483,0.609,17.090,25.269,3.296
-0.196,0.471,0.616,16.541,23.376,2.014
-0.232,0.460,0.605,16.296,18.555,4.944
-0.252,0.461,0.613,16.479,14.954,6.958
-0.252,0.478,0.648,17.273,15.442,6.897

-0.950,-0.783,1.402,192.444,24.719,260.071
-1.049,-0.745,1.522,199.463,13.062,258.606
-1.149,-0.691,1.583,198.120,-7.935,257.812
-1.128,-0.638,1.618,191.772,-28.687,254.578
-0.947,-0.627,1.764,183.655,-35.461,251.221
-0.700,-0.602,1.966,174.377,-32.898,246.643
-0.501,-0.553,2.113,159.668,-28.381,244.568
-0.445,-0.560,2.151,138.367,-17.029,247.192
-0.507,-0.532,2.181,114.746,5.676,247.620
-0.602,-0.466,2.144,91.370,32.776,241.089
-0.697,-0.506,2.011,70.984,58.472,229.858
-0.770,-0.560,1.824,54.810,79.407,213.257
-0.783,-0.559,1.599,44.983,89.600,195.496
-0.725,-0.549,1.375,42.542,88.623,184.265
-0.639,-0.583,1.247,45.532,83.130,181.152
-0.519,-0.612,1.184,51.575,75.684,182.495
-0.392,-0.597,1.215,57.739,70.496,186.096
-0.286,-0.539,1.328,61.890,67.688,191.162
-0.234,-0.453,1.496,59.387,66.345,197.266
-0.234,-0.338,1.665,47.363,67.749,204.773
-0.288,-0.229,1.795,25.574,71.960,213.379
-0.352,-0.221,1.871,-3.296,81.299,221.863
-0.445,-0.291,1.798,-36.133,85.938,223.022
-0.636,-0.357,1.526,-68.481,78.369,212.097
-0.679,-0.425,1.261,-94.849,72.266,196.960
-0.782,-0.518,0.986,-110.657,62.927,183.594
-0.770,-0.552,0.779,-114.990,49.011,168.518
-0.737,-0.623,0.707,-110.046,36.987,160.217
-0.605,-0.655,0.751,-102.478,27.161,157.898
-0.535,-0.714,0.866,-96.802,15.503,166.687
-0.548,-0.700,1.046,-95.215,5.920,183.838
-0.633,-0.684,1.200,-101.563,6.287,200.928
-0.818,-0.615,1.360,-112.610,13.367,214.966
-1.014,-0.503,1.468,-128.967,23.987,223.816
-1.147,-0.468,1.585,-148.254,38.696,228.149
-1.241,-0.437,1.541,-169.189,49.744,224.121
-1.391,-0.219,1.370,-195.557,58.960,212.891
-1.561,0.067,1.249,-218.140,65.491,199.280
-1.825,0.384,1.093,-240.234,60.730,185.120
-2.143,0.735,0.928,-267.700,41.626,164.429
-2.448,0.963,0.668,-297.791,16.846,137.390
-2.770,1.110,0.388,-317.017,-10.254,98.083
-2.997,1.057,0.240,-321.960,-41.504,39.551
-2.732,0.766,0.119,-322.266,-77.087,-27.771
-2.170,0.417,0.090,-309.753,-106.873,-91.797
-1.652,0.053,0.175,-288.025,-128.418,-135.742
-1.296,-0.230,0.280,-256.653,-140.808,-165.100
-1.165,-0.397,0.392,-223.572,-135.193,-185.303
-1.058,-0.458,0.508,-188.477,-107.971,-205.933
-1.032,-0.474,0.536,-157.227,-70.679,-226.440
-1.142,-0.477,0.511,-131.836,-36.377,-243.713
-1.308,-0.441,0.583,-108.948,-13.123,-259.888
-1.470,-0.430,0.716,-92.651,-3.113,-274.109
-1.576,-0.452,0.846,-86.548,-2.136,-287.903
-1.628,-0.502,0.984,-90.332,-8.301,-302.551
-1.491,-0.526,1.041,-103.638,-24.109,-312.866
-1.304,-0.603,0.926,-121.582,-51.514,-315.796
-1.149,-0.724,0.714,-132.446,-84.045,-313.660
-0.957,-0.824,0.525,-130.920,-106.812,-311.584
-0.707,-0.892,0.460,-115.723,-116.882,-310.547
-0.490,-0.895,0.470,-91.858,-122.498,-308.167
-0.463,-0.852,0.549,-67.505,-127.136,-301.636
-0.546,-0.764,0.661,-47.424,-128.540,-294.678
-0.678,-0.678,0.809,-34.424,-131.470,-293.274
-0.753,-0.624,0.929,-29.175,-141.174,-295.593
-0.760,-0.619,1.023,-30.396,-156.982,-298.828
-0.613,-0.648,1.081,-33.997,-176.941,-300.293
-0.314,-0.723,1.164,-36.621,-196.045,-296.875
0.043,-0.802,1.221,-39.246,-213.623,-289.978
0.341,-0.887,1.238,-40.039,-228.088,-275.513
0.546,-0.921,1.280,-36.255,-236.694,-257.507
0.646,-0.932,1.336,-29.785,-235.657,-236.328
0.668,-0.867,1.420,-20.630,-222.168,-215.637
0.595,-0.771,1.436,-12.451,-200.684,-197.754
0.485,-0.696,1.493,-3.723,-179.199,-181.030
0.410,-0.568,1.609,3.174,-163.757,-164.795
0.346,-0.512,1.703,4.700,-155.273,-147.583
0.335,-0.388,1.807,1.343,-149.109,-138.428
0.402,-0.294,1.955,-4.822,-144.958,-129.272
0.474,-0.258,2.012,-12.817,-144.348,-116.577
0.518,-0.241,1.995,-23.010,-142.456,-102.173
0.592,-0.213,1.947,-31.677,-133.057,-89.111
0.652,-0.168,1.902,-35.400,-119.263,-75.623
0.653,-0.110,1.800,-35.156,-102.295,-62.012
0.591,-0.051,1.682,-32.288,-83.069,-49.377
0.557,0.059,1.591,-26.489,-63.965,-37.659
0.368,0.069,1.459,-21.606,-44.006,-31.067
0.536,0.313,1.541,-24.170,-16.724,-26.733
0.356,0.257,1.505,-21.057,-26.672,-2.258
0.056,0.314,1.266,-25.818,-42.114,11.841
-0.046,0.391,1.069,-30.396,-32.837,5.798
0.095,0.412,1.038,-22.644,-13.489,-2.747
0.299,0.406,1.073,-14.282,-1.587,-2.319
0.226,0.413,1.013,-9.033,-3.235,8.606
0.139,0.404,0.915,-3.052,1.953,22.217
0.097,0.415,0.867,3.174,23.315,20.203
0.101,0.465,0.955,14.282,40.833,18.372
-0.026,0.482,1.013,18.616,44.128,27.466
-0.219,0.519,0.993,14.526,38.269,35.706
-0.316,0.572,0.971,8.362,36.255,31.860
-0.310,0.606,0.966,3.784,38.696,20.325
-0.247,0.644,0.949,-1.465,40.588,8.972
-0.206,0.649,0.893,-6.653,36.133,2.441
-0.174,0.648,0.838,-10.559,27.039,0.244
-0.141,0.643,0.808,-13.306,17.273,1.221
-0.162,0.620,0.748,-14.832,6.897,2.808
-0.150,0.613,0.663,-14.893,-0.793,1.160
-0.111,0.557,0.621,-13.123,-3.235,0.916
-0.074,0.498,0.591,-9.094,-3.540,1.038
-0.036,0.482,0.628,-3.906,-1.404,1.038
-0.037,0.479,0.662,0.977,0.977,1.770
-0.069,0.487,0.679,4.272,4.028,2.319
-0.101,0.497,0.707,5.798,7.263,0.671
-0.117,0.508,0.742,6.165,7.080,-0.977
-0.126,0.485,0.769,4.456,3.967,-1.953
-0.093,0.494,0.771,0.854,0.610,-3.967
-0.047,0.475,0.781,-1.831,-0.916,-5.432
-0.004,0.460,0.799,-1.831,-1.648,-5.249
0.017,0.444,0.804,-1.282,-2.014,-3.540

0.986,-0.590,1.012,41.321,-121.826,-38.757
0.849,-0.679,1.000,38.757,-140.137,-14.587
0.734,-0.678,1.046,35.767,-136.047,3.845
0.627,-0.645,1.079,35.706,-122.437,6.470
0.624,-0.609,1.187,40.527,-103.455,-0.061
0.638,-0.584,1.312,41.931,-91.858,-4.272
0.603,-0.588,1.380,36.865,-89.661,-0.793
0.690,-0.576,1.546,28.442,-90.027,5.737
0.642,-0.526,1.604,16.235,-102.112,13.855
0.622,-0.541,1.613,1.770,-109.680,24.109
0.619,-0.530,1.522,-12.756,-108.459,30.640
0.621,-0.592,1.399,-19.043,-100.464,36.255
0.630,-0.618,1.303,-15.991,-87.952,41.321
0.612,-0.606,1.277,-6.714,-74.951,47.791
0.548,-0.572,1.298,3.845,-62.622,53.833
0.440,-0.488,1.312,10.864,-53.406,58.777
0.298,-0.398,1.335,14.832,-48.767,62.195
0.210,-0.320,1.378,14.099,-48.523,63.477
0.215,-0.243,1.409,8.667,-55.420,64.026
0.193,-0.166,1.525,-2.197,-78.796,65.125
0.112,-0.137,1.473,-23.743,-113.159,75.256
0.119,-0.140,1.407,-42.358,-128.662,86.182
0.140,-0.168,1.232,-58.228,-141.235,89.844
0.183,-0.225,1.014,-59.875,-140.137,92.407
0.237,-0.313,0.954,-45.227,-118.469,94.177
0.210,-0.263,0.970,-27.405,-82.581,92.773
0.202,-0.262,1.066,-2.014,-42.664,90.027
0.156,-0.274,1.171,15.320,-15.076,90.759
0.093,-0.222,1.249,18.250,-0.977,94.238
-0.016,-0.145,1.293,16.113,2.136,98.083
-0.085,-0.083,1.356,8.911,0.854,101.685
-0.065,-0.031,1.454,-4.089,-5.066,104.309
-0.059,0.015,1.523,-22.644,-18.921,107.300
-0.002,0.016,1.508,-47.913,-40.527,114.441
0.051,0.001,1.328,-76.233,-67.322,126.343
0.029,-0.056,1.034,-92.529,-90.515,142.334
-0.050,-0.086,0.759,-89.966,-96.619,156.006
-0.055,-0.228,0.620,-68.848,-81.726,154.724
-0.114,-0.155,0.551,-40.039,-51.697,136.658
-0.190,-0.167,0.656,-6.531,-8.667,127.502
-0.309,-0.151,0.776,24.719,28.015,112.488
-0.371,-0.025,0.882,42.358,58.777,89.600
-0.333,0.024,1.007,50.293,75.439,72.021
-0.291,0.062,1.122,50.781,70.313,63.965
-0.210,0.080,1.160,42.847,46.509,62.500
-0.120,0.064,1.172,31.677,15.625,67.139
-0.048,0.042,1.160,19.531,-15.869,78.003
-0.004,-0.068,1.104,8.179,-38.269,91.614
0.056,-0.118,1.058,-3.174,-42.236,99.060
0.055,-0.084,1.028,-11.475,-39.368,103.516
-0.030,-0.029,0.930,-12.634,-27.466,100.769
-0.059,-0.012,0.890,-4.028,-10.010,90.637
-0.050,-0.069,0.855,11.536,4.150,76.416
-0.020,-0.123,0.928,26.611,19.348,63.904
-0.026,-0.035,0.952,32.715,32.654,55.603
-0.071,0.019,1.063,34.912,34.241,51.270
-0.050,-0.004,1.099,36.255,30.212,49.805
-0.011,-0.090,1.070,24.475,21.057,49.072
-0.133,0.041,1.026,1.038,5.188,53.833
-0.136,0.054,0.996,-8.179,-7.019,59.875
-0.065,-0.039,1.050,-2.136,-10.803,49.438
0.002,-0.028,0.942,-13.550,-11.780,42.297
0.203,-0.104,0.852,-15.747,-6.836,43.945
0.289,-0.289,0.887,-4.150,-0.793,52.795
0.082,-0.245,0.867,-6.104,2.930,58.899
-0.108,-0.059,0.868,1.770,15.808,61.035
-0.175,0.020,0.932,31.982,29.236,52.673
-0.141,0.004,1.071,58.105,37.842,39.551
-0.049,-0.034,1.143,62.256,43.884,27.405
0.063,-0.122,1.176,57.800,50.110,19.287
0.114,-0.132,1.187,49.744,52.185,16.418
0.069,-0.092,1.177,37.415,46.814,15.686
0.021,-0.043,1.161,24.109,34.546,14.465
0.015,-0.069,1.111,10.681,18.005,14.465
0.042,-0.085,1.004,-4.761,2.136,16.907
0.044,-0.101,0.917,-10.437,-5.493,20.447
0.017,-0.114,0.868,-5.981,-5.371,18.921
0.029,-0.134,0.830,-3.906,-2.441,13.062
0.014,-0.115,0.806,-5.432,-2.319,9.399
0.025,-0.083,0.794,-7.080,-5.005,5.127
0.005,-0.052,0.830,-6.531,-5.066,2.380
0.017,-0.087,0.794,-4.822,-8.850,-1.038
0.068,-0.118,0.776,-3.601,-12.268,-4.517
0.136,-0.149,0.827,-2.380,-15.808,-6.836
0.168,-0.181,0.914,-3.296,-22.827,-7.385
0.097,-0.132,0.979,-2.808,-30.945,-7.874
0.057,-0.077,1.032,3.113,-28.381,-15.015
0.076,-0.063,1.180,11.597,-13.611,-23.193
0.171,-0.243,1.617,4.456,-3.906,-30.212
0.121,0.179,1.561,-60.242,-15.259,-23.071
-0.248,0.205,0.917,-80.872,-34.302,-8.789
0.045,-0.076,0.847,-13.000,-18.982,-3.113
0.053,-0.250,1.040,28.992,-13.062,-9.583
0.028,-0.235,1.034,12.268,-13.550,-15.198
0.080,-0.116,0.984,-13.550,-6.958,-17.151
0.109,-0.060,0.937,-8.972,-1.099,-12.817
0.110,-0.043,0.964,3.296,0.854,-9.460
0.047,-0.098,0.990,1.404,2.014,-13.062
0.067,-0.022,0.955,-6.653,2.441,-21.912
0.057,-0.007,0.954,-9.460,0.122,-25.696
0.067,-0.013,0.952,-9.216,-3.113,-27.161
0.104,-0.018,0.906,-10.986,-9.033,-32.532
0.131,-0.012,0.920,-13.611,-17.212,-45.105
0.068,-0.014,0.962,-14.343,-26.855,-54.565
-0.028,-0.056,0.982,-12.207,-28.198,-61.523
-0.056,-0.068,0.976,-9.644,-24.475,-57.983
-0.118,-0.059,1.000,-6.042,-22.583,-44.067
-0.111,-0.107,0.993,-2.197,-20.813,-27.466
-0.114,-0.119,1.011,0.854,-12.695,-15.808
-0.094,-0.096,1.023,-3.357,-6.775,-4.272
-0.032,-0.046,0.993,-10.315,-3.967,3.845
-0.041,-0.005,0.974,-12.634,-1.343,2.747
-0.002,-0.005,0.954,-10.559,0.427,1.343
0.004,-0.000,0.943,-6.287,-0.610,-0.305
-0.024,0.019,0.992,-7.019,-3.235,-6.226
0.010,0.021,0.944,-16.541,-4.150,-20.630
0.022,0.077,0.878,-25.879,-11.719,-35.583
-0.032,0.047,0.931,-23.499,-23.926,-47.913
-0.045,-0.037,0.960,-7.202,-26.978,-53.101
