aX,aY,aZ,gX,gY,gZ
1.537,-0.627,-1.100,-100.342,570.618,-36.865
1.852,-1.030,-0.871,-25.269,577.148,-31.128
2.473,-1.495,-0.284,56.030,584.839,-50.293
3.269,-1.616,0.362,101.501,596.008,-87.463
3.961,-1.354,0.837,103.516,564.026,-122.131
3.691,-0.762,1.567,87.158,468.933,-126.709
3.049,-0.121,1.850,63.721,382.507,-102.478
2.260,-0.074,1.940,44.983,345.337,-36.987
1.612,-0.415,2.048,25.513,364.441,72.632
1.154,-0.967,2.010,-15.015,411.499,172.546
0.828,-1.259,1.660,-82.031,441.650,228.149
0.507,-0.974,1.054,-157.593,421.021,237.122
0.368,-0.652,0.411,-211.975,354.370,216.003
0.342,-0.305,-0.411,-235.535,256.775,180.786
0.271,0.245,-1.100,-219.788,135.742,129.272
0.112,0.437,-1.621,-155.457,1.953,56.946
-0.069,0.432,-1.854,-77.026,-102.478,-4.517
-0.108,0.258,-1.917,-23.865,-140.625,-38.269
-0.150,0.393,-1.962,-4.578,-123.474,-45.410
-0.081,0.564,-1.844,9.644,-77.393,-40.100
0.117,0.671,-1.547,35.706,-3.906,-26.184
0.337,0.368,-1.097,63.660,83.069,0.977
0.664,-0.069,-0.500,81.116,169.800,33.691
0.935,-0.258,0.073,76.782,220.581,53.345
1.288,-0.501,0.496,65.735,231.140,54.565
1.495,-0.672,0.762,51.331,184.204,44.373
1.526,-0.573,0.685,21.545,96.008,25.391
1.424,-0.296,0.424,-14.343,-3.052,6.165
1.160,-0.227,-0.043,-35.583,-98.206,-1.648
0.811,-0.112,-0.514,-42.358,-162.476,-13.000
0.593,0.106,-0.872,-37.048,-187.317,-29.419
0.426,0.285,-1.082,-24.231,-187.256,-42.480
0.494,0.368,-1.182,-7.263,-152.222,-47.424
0.636,0.435,-1.067,10.315,-100.403,-39.124
0.768,0.455,-0.895,26.184,-51.147,-16.663
0.946,0.361,-0.692,36.194,-11.475,8.545
1.107,0.271,-0.512,43.945,11.902,29.175
1.302,0.141,-0.339,51.086,16.113,42.236
1.467,0.051,-0.178,55.115,1.160,47.302
1.581,0.032,-0.042,53.101,-21.729,42.969
1.624,0.054,0.021,47.485,-50.049,33.203
1.582,0.065,0.057,41.931,-86.609,24.963
1.524,0.062,0.061,35.583,-120.483,22.156
1.463,0.054,0.011,26.245,-143.005,23.682
1.407,0.055,-0.047,16.296,-156.616,26.855
1.340,0.083,-0.089,7.690,-161.316,29.541
1.255,0.103,-0.136,0.000,-157.837,33.997
1.184,0.099,-0.210,-7.385,-146.301,42.236
1.229,0.130,-0.217,-12.329,-130.859,53.467
1.325,0.138,-0.171,-12.756,-117.493,63.904
1.388,0.131,-0.156,-11.841,-113.586,72.632
1.365,0.188,-0.155,-10.315,-115.356,79.895
1.373,0.187,-0.170,-5.127,-118.530,90.149
1.217,0.113,-0.199,0.061,-140.076,99.548
1.146,0.037,-0.170,5.432,-152.100,100.098
1.074,-0.002,-0.155,11.169,-157.837,95.886
0.974,0.001,-0.122,14.526,-165.344,90.942
0.946,-0.013,-0.099,16.846,-164.001,85.327
0.896,-0.050,-0.078,15.930,-163.147,82.825
0.880,-0.070,-0.034,12.817,-159.607,81.299
0.881,-0.079,-0.015,8.606,-154.175,80.444
0.833,-0.066,-0.008,5.249,-150.757,80.078
0.835,-0.026,0.013,4.822,-148.254,77.332
0.849,-0.011,0.062,7.751,-150.818,73.059
0.838,0.047,0.105,12.817,-157.959,67.749
0.844,0.120,0.131,19.775,-165.588,65.125
0.892,0.146,0.126,28.992,-176.636,66.589
0.977,0.142,0.137,42.358,-195.007,71.167
1.017,0.078,0.183,59.082,-219.910,75.867
0.986,-0.008,0.231,75.500,-243.225,79.407
0.912,-0.139,0.268,90.149,-259.094,84.045
0.802,-0.220,0.289,100.708,-268.921,88.562
0.685,-0.344,0.320,105.652,-276.672,88.623
0.542,-0.387,0.316,104.675,-284.058,84.412
0.415,-0.373,0.285,98.877,-288.147,74.646
0.334,-0.307,0.255,90.698,-285.583,58.716
0.317,-0.219,0.235,85.327,-280.212,40.771
0.377,-0.147,0.221,85.632,-274.902,24.719
0.451,-0.089,0.205,88.806,-271.729,14.954
0.550,-0.026,0.252,93.994,-272.949,14.893
0.591,0.001,0.275,100.891,-278.809,21.545
0.506,-0.044,0.282,108.643,-288.269,32.837
0.354,-0.134,0.302,114.685,-295.410,46.326
0.142,-0.147,0.346,113.892,-294.983,57.434
-0.062,-0.194,0.397,105.835,-284.302,62.256
-0.236,-0.103,0.436,93.018,-262.207,63.293
-0.290,0.025,0.488,82.520,-233.154,59.265
-0.262,0.107,0.551,80.566,-202.881,55.237
-0.198,0.139,0.656,85.266,-179.077,52.917
-0.165,0.124,0.753,90.759,-163.818,50.781
-0.178,0.105,0.836,94.604,-155.273,47.119
-0.155,0.069,0.929,98.816,-151.672,42.175
-0.217,0.109,1.016,102.051,-152.588,37.598
-0.423,0.108,1.109,101.624,-154.724,32.715
-0.628,0.097,1.176,89.905,-147.888,31.494
-0.660,0.115,1.162,72.815,-129.150,32.776
-0.696,0.113,1.153,62.378,-107.239,33.447
-0.749,0.177,1.199,57.922,-84.656,28.564
-0.738,0.258,1.213,54.871,-59.326,15.015
-0.703,0.374,1.218,55.115,-37.903,-0.732
-0.620,0.397,1.272,56.641,-20.691,-14.526
-0.478,0.476,1.237,53.467,-6.226,-23.743
-0.384,0.572,1.176,46.265,0.244,-28.259
-0.304,0.696,1.089,40.344,3.784,-27.893
-0.194,0.788,0.976,39.551,6.775,-23.010
-0.147,0.837,0.899,44.678,6.287,-16.235
-0.089,0.867,0.878,53.711,5.310,-11.658
0.022,0.874,0.930,67.566,5.737,-7.446
0.067,0.786,1.041,85.510,7.629,-0.854
0.035,0.634,1.172,99.243,11.841,6.653
-0.070,0.467,1.341,103.638,15.686,14.648
-0.156,0.306,1.503,97.412,20.142,22.888
-0.182,0.140,1.588,80.750,26.550,27.771
-0.211,0.014,1.595,54.993,32.776,29.419
-0.182,0.046,1.550,21.667,39.612,28.381
-0.123,0.083,1.455,-7.629,42.664,22.034
-0.071,0.099,1.282,-30.090,42.969,11.536
-0.012,0.383,1.279,-57.312,50.476,2.319
0.005,0.534,1.288,-58.533,47.607,2.563

-0.071,1.722,0.975,-166.870,206.970,81.604
-0.187,1.723,1.133,-142.334,205.750,98.083
-0.252,1.549,1.199,-118.042,195.679,109.070
-0.421,1.115,1.167,-87.341,177.917,99.854
-0.707,0.820,1.161,-67.810,174.866,61.523
-0.927,0.730,1.128,-68.176,195.007,15.259
-1.019,0.687,1.040,-83.984,236.694,-14.648
-0.890,0.689,0.840,-117.065,303.894,-18.188
-0.540,0.816,0.574,-159.607,385.254,-2.075
-0.171,0.962,0.228,-191.467,453.735,22.644
0.191,1.017,0.025,-200.439,473.511,42.847
0.466,0.889,-0.100,-185.852,436.340,49.561
0.567,0.572,-0.208,-162.170,377.502,42.908
0.533,0.271,-0.322,-137.756,321.350,29.663
0.463,-0.245,-0.362,-120.728,282.532,10.864
0.361,-0.652,-0.388,-117.493,261.230,-11.169
0.318,-1.000,-0.482,-129.517,249.146,-34.851
0.352,-1.271,-0.622,-155.029,246.704,-55.298
0.481,-1.517,-0.735,-181.152,247.437,-79.895
0.784,-1.712,-0.902,-196.228,246.338,-109.497
1.324,-1.713,-1.000,-197.021,236.023,-135.681
1.177,-1.670,-1.384,-182.922,214.478,-156.311
1.765,-1.530,-1.274,-150.452,237.549,-179.687
1.892,-1.231,-1.263,-114.807,231.201,-192.139
2.371,-0.716,-0.993,-86.304,237.549,-191.711
2.862,-0.090,-0.933,-76.904,272.827,-167.847
3.282,0.638,-0.550,-50.720,314.636,-125.427
3.643,0.766,0.397,17.639,334.412,-80.505
4.000,-0.001,1.555,102.478,317.139,-18.616
3.346,-0.804,2.466,130.859,222.900,63.782
1.864,-1.276,2.203,55.542,61.890,141.052
0.054,-1.393,0.886,-64.148,-104.797,172.729
-1.312,-1.131,-0.382,-143.860,-227.356,136.658
-2.006,-0.596,-1.612,-165.039,-266.174,50.964
-2.142,0.109,-2.422,-149.292,-227.478,-47.546
-1.634,0.838,-2.603,-104.492,-138.916,-117.676
-0.877,0.981,-2.354,-42.908,-49.377,-133.057
-0.200,0.774,-1.888,0.854,28.442,-110.962
0.423,0.623,-1.521,14.282,92.224,-72.998
0.933,0.733,-1.210,20.203,119.507,-36.011
1.306,0.697,-0.861,38.757,108.093,-9.033
1.659,0.363,-0.468,66.223,81.970,8.240
1.577,0.009,-0.073,81.726,41.504,19.104
1.472,-0.138,0.140,72.021,6.165,16.235
1.321,-0.090,0.121,43.640,-19.714,10.010
1.168,-0.004,0.006,20.630,-42.480,3.418
1.043,0.091,-0.168,4.272,-56.885,-4.211
0.940,0.202,-0.355,-3.967,-60.303,-11.719
0.882,0.302,-0.482,-5.920,-55.054,-18.127
0.859,0.375,-0.586,-4.395,-45.288,-21.179
0.858,0.474,-0.691,-3.235,-34.485,-20.508
0.879,0.548,-0.754,0.671,-22.522,-16.968
0.978,0.568,-0.702,10.193,-12.634,-9.949
1.092,0.547,-0.626,21.606,-8.789,-1.831
1.226,0.526,-0.539,31.616,-11.475,7.385
1.299,0.482,-0.468,41.321,-21.423,20.203
1.354,0.321,-0.360,49.133,-33.386,29.175
1.365,0.223,-0.182,53.284,-44.739,28.870
1.338,0.170,-0.046,54.260,-60.303,24.170
1.297,0.097,0.053,51.636,-79.712,21.240
1.213,0.072,0.103,44.617,-99.304,20.020
1.123,0.070,0.080,32.166,-115.906,18.188
1.083,0.052,0.016,18.066,-127.441,16.541
1.100,0.050,-0.077,4.639,-130.737,17.334
1.153,0.061,-0.161,-4.333,-128.418,18.677
1.285,0.064,-0.204,-8.057,-124.695,20.325
1.404,0.043,-0.214,-4.761,-128.052,25.696
1.597,0.003,-0.203,-1.770,-136.963,36.255
1.732,-0.057,-0.198,-0.183,-154.724,51.636
1.729,-0.097,-0.261,3.601,-183.655,69.641
1.592,-0.100,-0.288,12.390,-217.590,80.688
1.412,-0.107,-0.305,26.489,-251.465,83.191
1.200,-0.180,-0.279,42.969,-280.640,82.092
1.032,-0.212,-0.206,56.152,-298.889,76.538
0.985,-0.325,-0.153,62.805,-305.847,66.589
0.950,-0.388,-0.111,63.477,-308.228,59.265
0.919,-0.415,-0.080,59.692,-310.852,54.138
0.943,-0.457,-0.053,56.458,-311.646,48.828
1.017,-0.470,-0.022,55.786,-316.101,43.396
1.047,-0.389,0.023,56.458,-331.726,37.292
1.018,-0.351,0.003,59.875,-358.887,27.832
0.959,-0.354,-0.088,67.627,-392.944,15.503
0.857,-0.356,-0.088,78.735,-433.044,2.319
0.757,-0.340,-0.064,88.135,-471.252,-11.292
0.630,-0.294,-0.077,89.905,-492.920,-22.583
0.442,-0.173,-0.124,81.482,-498.047,-24.658
0.196,-0.073,-0.125,67.932,-488.525,-18.616
-0.024,0.023,-0.056,55.298,-459.412,-4.883
-0.174,0.099,0.043,45.837,-411.438,10.437
-0.322,0.100,0.041,38.208,-357.422,24.536
-0.324,0.187,0.167,28.870,-300.537,39.856
-0.227,0.339,0.292,17.212,-245.544,54.199
-0.181,0.435,0.358,6.836,-201.660,68.909
-0.111,0.487,0.430,1.526,-173.157,80.017
-0.055,0.627,0.458,-2.014,-158.691,84.229
-0.142,0.805,0.423,-4.517,-158.813,84.412
-0.334,0.991,0.330,-2.258,-166.443,80.994
-0.525,1.128,0.272,11.902,-172.119,71.899
-0.789,1.227,0.236,35.461,-172.974,58.777
-1.000,1.298,0.233,63.354,-161.865,43.091
-1.120,1.308,0.291,95.093,-139.404,26.123
-1.130,1.281,0.448,127.808,-107.666,10.315
-0.888,1.205,0.673,153.564,-64.636,-2.136
-0.464,1.171,0.918,169.922,-19.287,-6.775
-0.098,1.119,1.222,179.138,12.024,2.991
0.182,0.967,1.391,178.955,26.123,29.175
0.263,0.729,1.504,170.471,24.597,61.523
0.169,0.583,1.458,155.945,11.536,88.318
-0.146,0.405,1.398,144.043,-5.493,101.440
-0.493,0.266,1.384,136.597,-9.583,101.501
-0.705,0.203,1.422,128.784,1.526,90.942
-0.840,0.158,1.534,118.347,23.499,72.083
-0.756,0.271,1.644,101.257,51.331,49.988
-0.445,0.383,1.711,80.566,73.425,27.649
-0.225,0.487,1.786,61.829,84.412,15.259
-0.176,0.537,1.887,41.870,91.431,15.869
-0.187,0.535,1.871,17.456,103.638,24.963
-0.208,0.605,1.784,-11.475,119.995,34.180
-0.167,0.770,1.724,-37.231,133.667,39.551

-0.141,0.843,1.505,-61.462,136.841,36.865
-0.215,0.882,1.415,-74.036,127.197,26.978
-0.434,0.847,1.241,-88.684,127.869,13.794
-0.467,0.949,1.134,-103.149,157.227,-3.601
-0.565,0.970,1.041,-117.493,177.612,-12.756
-0.396,0.946,0.970,-129.639,206.482,-13.733
-0.088,0.999,1.001,-147.217,250.244,-4.395
0.284,1.150,1.057,-168.823,290.527,16.296
0.552,1.259,1.030,-181.702,302.307,45.593
0.597,1.245,1.054,-182.800,286.194,81.421
0.462,1.206,1.186,-186.951,277.039,123.901
0.255,1.199,1.313,-202.515,290.894,167.725
0.048,1.078,1.302,-228.516,310.547,205.750
-0.208,0.924,1.133,-263.000,332.581,227.356
-0.577,0.933,0.854,-303.772,356.995,227.051
-0.885,1.033,0.582,-339.355,391.174,209.290
-1.111,1.214,0.393,-363.220,446.289,184.998
-1.187,1.442,0.177,-376.038,508.301,167.908
-1.181,1.842,-0.272,-380.737,565.918,169.800
-0.902,1.921,-0.485,-368.652,604.736,183.777
-0.696,1.744,-0.562,-339.294,632.202,200.012
-0.534,1.574,-0.599,-315.613,646.545,208.313
-0.383,1.300,-0.500,-299.438,636.108,198.059
-0.249,0.969,-0.341,-286.560,611.267,173.096
-0.136,0.706,-0.145,-280.945,578.186,140.137
-0.044,0.421,0.020,-283.875,530.518,101.196
0.036,0.181,0.132,-295.776,469.238,57.983
0.155,-0.087,0.109,-309.631,394.836,12.512
0.243,-0.348,-0.004,-317.078,314.087,-27.222
0.263,-0.566,-0.276,-312.622,234.375,-55.969
0.314,-0.823,-0.673,-296.814,166.260,-80.078
0.377,-1.057,-0.943,-273.743,121.277,-96.863
0.511,-1.330,-1.089,-249.573,101.501,-105.591
0.788,-1.787,-0.948,-226.318,97.534,-107.361
1.166,-2.056,-0.944,-213.074,108.765,-96.375
1.901,-2.445,-0.884,-217.712,107.971,-78.064
2.577,-2.445,-1.055,-254.700,32.288,-62.500
2.813,-2.099,-1.551,-291.687,-70.190,-71.960
2.522,-1.322,-2.191,-294.250,-185.486,-126.465
2.073,-0.138,-2.791,-234.436,-264.282,-226.318
1.667,1.443,-2.984,-130.310,-270.996,-332.336
1.947,2.296,-2.340,-17.639,-172.180,-368.164
3.032,2.493,-1.016,71.838,31.311,-242.126
3.999,1.362,0.446,100.220,204.102,-27.405
3.981,0.524,1.191,77.026,219.482,158.630
3.080,-0.329,1.462,61.340,98.145,252.075
1.712,-1.189,1.026,64.453,-84.534,269.531
0.182,-1.655,0.191,55.542,-252.563,248.840
-1.355,-1.649,-0.766,25.940,-370.789,203.369
-2.411,-1.285,-1.562,-12.024,-410.034,137.756
-2.816,-0.701,-2.141,-34.485,-351.746,58.044
-2.673,-0.285,-2.204,-27.893,-233.582,-14.709
-2.100,-0.176,-1.989,-15.442,-89.600,-51.941
-1.174,-0.023,-1.653,-26.733,52.734,-59.143
-0.297,0.165,-1.405,-44.739,149.353,-50.598
0.345,0.345,-1.224,-49.133,176.514,-38.147
0.768,0.453,-1.090,-38.330,152.283,-32.410
0.995,0.466,-0.986,-16.235,103.638,-35.950
1.190,0.404,-0.958,8.911,51.392,-45.227
1.398,0.341,-0.979,28.198,4.700,-61.279
1.448,0.404,-0.955,39.978,-40.161,-82.947
1.385,0.550,-0.909,50.781,-75.623,-97.046
1.207,0.498,-0.842,59.082,-96.191,-89.172
1.055,0.394,-0.769,54.260,-89.783,-64.026
1.007,0.410,-0.768,31.494,-62.073,-36.072
1.037,0.493,-0.778,8.972,-33.447,-13.245
1.062,0.518,-0.842,0.793,-22.827,1.282
1.079,0.520,-0.855,7.751,-22.034,10.498
1.076,0.501,-0.897,20.569,-32.715,18.372
1.078,0.520,-0.962,31.921,-46.448,26.489
1.106,0.533,-1.048,43.396,-61.279,33.691
1.072,0.541,-1.031,62.439,-85.632,40.710
1.047,0.518,-0.922,87.219,-109.131,49.622
1.067,0.355,-0.798,110.046,-127.014,62.683
1.060,0.184,-0.666,126.038,-144.653,74.036
1.026,0.087,-0.603,133.667,-163.879,80.322
0.983,0.013,-0.606,136.108,-182.434,83.618
0.972,-0.025,-0.593,135.620,-194.641,85.022
0.990,-0.000,-0.560,132.568,-200.317,87.952
1.048,0.014,-0.538,130.249,-202.698,93.445
1.134,0.006,-0.507,130.920,-206.543,99.854
1.262,0.002,-0.475,132.935,-212.708,107.117
1.356,0.011,-0.406,133.484,-220.886,114.807
1.431,0.006,-0.318,135.620,-237.244,123.535
1.571,-0.016,-0.238,140.320,-259.277,130.737
1.735,-0.024,-0.178,147.339,-290.588,133.789
1.836,-0.071,-0.142,155.823,-333.374,135.925
1.854,-0.133,-0.144,162.537,-376.343,139.587
1.797,-0.189,-0.170,165.039,-410.278,143.799
1.642,-0.246,-0.188,163.818,-433.655,148.987
1.413,-0.327,-0.139,159.485,-445.740,150.879
1.209,-0.375,-0.053,149.902,-448.120,149.292
1.039,-0.395,0.026,131.775,-439.331,148.682
0.943,-0.371,0.100,110.596,-417.725,148.132
0.887,-0.322,0.177,87.646,-393.250,147.217
0.827,-0.233,0.241,63.660,-370.300,148.254
0.775,-0.107,0.259,40.466,-342.407,152.100
0.752,0.010,0.265,19.653,-313.599,158.508
0.600,0.101,0.250,1.160,-289.490,168.762
0.335,0.196,0.228,-14.771,-268.127,181.213
0.031,0.321,0.171,-23.987,-244.751,189.026
-0.242,0.439,0.133,-27.100,-215.454,186.584
-0.605,0.556,0.033,-23.743,-189.941,173.157
-0.931,0.629,-0.044,-18.616,-176.086,148.315
-0.966,0.660,-0.095,-10.437,-167.847,110.657
-0.771,0.821,-0.013,0.183,-143.494,70.251
-0.529,1.041,0.038,7.812,-109.192,41.748
-0.488,1.214,-0.047,8.484,-85.876,39.673
-0.650,1.337,-0.144,8.911,-71.838,51.636
-0.797,1.390,-0.199,20.386,-65.063,53.162
-0.817,1.344,-0.171,44.250,-66.467,41.565
-0.925,1.308,-0.172,65.491,-68.909,27.405
-1.091,1.266,-0.172,76.355,-66.772,13.489
-1.170,1.182,-0.088,83.923,-54.077,0.977
-1.071,1.094,-0.035,82.642,-31.494,-11.047
-0.855,1.071,0.016,72.083,-4.517,-24.231
-0.589,1.109,0.055,58.105,20.813,-31.067
-0.380,1.217,0.069,44.556,43.823,-29.541
-0.167,1.355,0.056,33.447,64.758,-24.414

-1.254,1.372,0.204,-186.157,195.190,47.852
-1.415,1.182,0.300,-200.500,227.417,28.931
-1.535,0.934,0.348,-229.004,259.583,5.737
-1.613,0.753,0.331,-272.034,297.241,-23.804
-1.533,0.634,0.153,-326.050,337.585,-58.044
-1.365,0.606,-0.168,-383.484,366.943,-95.215
-1.072,0.684,-0.524,-427.490,381.348,-132.812
-0.573,0.828,-0.795,-444.458,381.287,-164.368
-0.268,0.989,-0.941,-437.012,362.488,-173.462
-0.196,0.977,-0.986,-420.044,348.206,-148.193
-0.385,0.790,-0.919,-404.175,352.539,-110.779
-0.497,0.495,-0.805,-394.653,362.122,-94.177
-0.548,0.190,-0.765,-387.146,362.427,-102.356
-0.526,-0.075,-0.768,-381.653,351.196,-128.113
-0.420,-0.311,-0.828,-377.869,329.651,-166.809
-0.276,-0.561,-0.877,-368.164,304.443,-212.341
-0.014,-0.866,-0.901,-352.234,281.616,-252.563
0.578,-1.216,-0.908,-336.121,259.766,-285.583
1.554,-1.380,-0.762,-319.397,244.995,-307.556
2.228,-1.266,-0.563,-315.063,213.562,-299.011
2.411,-1.103,-0.428,-322.571,166.809,-246.948
2.293,-1.272,-0.471,-322.571,122.070,-172.852
1.884,-1.619,-0.523,-308.777,78.979,-127.136
1.275,-1.979,-0.645,-292.114,58.411,-136.780
0.648,-2.009,-0.823,-279.602,68.420,-184.082
0.614,-2.226,-1.099,-293.030,71.594,-237.976
0.981,-1.826,-2.281,-355.042,125.732,-289.490
1.789,-0.512,-3.784,-432.922,195.068,-326.904
2.662,1.559,-4.000,-422.607,267.212,-342.712
3.387,3.039,-3.476,-273.621,299.744,-287.964
3.977,3.164,-1.960,-52.979,235.901,-164.124
3.971,2.096,-0.712,151.978,75.500,-31.128
3.102,0.521,0.147,305.176,-129.211,77.942
1.491,-1.000,0.448,357.910,-302.063,151.428
-0.139,-1.859,0.342,305.786,-361.267,180.786
-1.232,-1.897,0.040,179.443,-307.739,167.847
-1.577,-1.472,-0.449,47.058,-198.975,133.667
-1.391,-0.959,-0.798,-38.879,-88.257,105.530
-1.157,-0.630,-1.063,-72.205,-23.987,91.064
-0.963,-0.498,-1.375,-72.021,-8.362,78.369
-0.830,-0.462,-1.623,-56.274,-16.785,59.326
-0.722,-0.412,-1.735,-36.438,-25.330,35.950
-0.646,-0.295,-1.736,-21.667,-23.010,19.775
-0.510,-0.167,-1.744,-13.733,-8.728,11.230
-0.233,-0.080,-1.743,-3.601,8.850,1.404
0.085,-0.015,-1.577,17.578,19.226,-8.423
0.359,-0.016,-1.331,43.274,12.207,-13.733
0.532,-0.089,-1.101,63.110,-8.118,-15.198
0.560,-0.131,-0.871,74.402,-36.499,-19.104
0.482,-0.185,-0.763,75.684,-67.261,-22.278
0.323,-0.235,-0.829,65.491,-88.562,-18.372
0.214,-0.228,-1.035,44.861,-90.332,-16.235
0.199,-0.137,-1.256,25.391,-74.890,-18.738
0.292,-0.003,-1.370,13.000,-50.964,-21.423
0.458,0.138,-1.454,6.592,-29.297,-18.250
0.616,0.254,-1.530,4.944,-15.625,-9.888
0.743,0.334,-1.583,11.902,-11.047,0.366
0.826,0.385,-1.609,27.466,-15.503,13.550
0.860,0.382,-1.620,49.316,-29.541,28.259
0.863,0.355,-1.597,76.782,-51.941,40.710
0.829,0.313,-1.546,108.582,-82.214,48.950
0.761,0.258,-1.454,141.968,-114.075,56.946
0.690,0.110,-1.372,174.316,-143.433,68.420
0.583,-0.039,-1.237,202.087,-169.861,78.125
0.485,-0.175,-1.073,220.093,-187.866,84.473
0.448,-0.224,-0.973,226.440,-191.895,89.539
0.487,-0.221,-0.884,225.830,-187.744,93.384
0.575,-0.214,-0.737,227.112,-183.472,98.206
0.686,-0.224,-0.643,226.807,-183.044,104.858
0.779,-0.204,-0.578,224.426,-185.486,111.511
0.850,-0.204,-0.465,226.685,-188.538,116.760
0.882,-0.243,-0.318,230.896,-192.688,122.864
0.936,-0.302,-0.202,231.445,-195.862,129.333
1.035,-0.367,-0.135,227.905,-198.242,133.484
1.138,-0.390,-0.105,220.642,-202.698,135.986
1.171,-0.352,-0.119,211.304,-211.853,137.207
1.211,-0.297,-0.129,206.848,-222.473,134.644
1.213,-0.270,-0.158,207.886,-235.779,130.005
1.131,-0.269,-0.191,209.778,-250.183,128.235
0.959,-0.332,-0.195,208.374,-262.207,132.202
0.802,-0.365,-0.114,198.792,-262.085,140.625
0.621,-0.292,-0.062,178.833,-244.995,146.362
0.545,-0.156,-0.077,160.217,-221.375,147.644
0.600,-0.034,-0.033,154.175,-205.505,144.348
0.704,0.062,0.026,155.823,-205.688,136.780
0.790,0.152,0.075,160.645,-220.093,127.441
0.767,0.232,0.081,165.588,-244.446,119.629
0.678,0.315,0.075,169.556,-273.010,112.976
0.492,0.429,0.067,171.753,-298.950,104.675
0.193,0.540,0.040,169.250,-319.580,96.985
-0.094,0.689,0.017,163.147,-326.660,94.849
-0.507,0.808,-0.025,156.738,-318.115,100.586
-0.860,0.841,0.051,152.466,-282.288,113.098
-1.017,0.945,0.181,143.921,-218.445,122.375
-1.005,1.057,0.294,130.676,-142.883,119.690
-0.737,1.176,0.421,123.413,-72.205,108.887
-0.385,1.267,0.514,128.906,-36.133,92.468
-0.046,1.308,0.538,143.677,-46.753,70.129
0.071,1.319,0.536,160.767,-89.478,47.241
-0.168,1.315,0.497,170.654,-133.057,31.738
-0.620,1.330,0.421,173.523,-151.184,24.414
-0.911,1.293,0.404,173.706,-138.123,17.822
-0.892,1.308,0.484,172.180,-100.037,14.282
-0.725,1.301,0.602,169.250,-51.086,18.250
-0.493,1.218,0.768,163.635,-6.104,27.588
-0.304,1.096,0.898,151.550,23.254,32.837
-0.172,1.031,0.916,134.277,28.992,24.292
-0.097,1.033,0.844,118.713,13.977,2.563
-0.101,1.075,0.767,108.948,-9.644,-24.597
-0.136,1.157,0.737,104.736,-29.175,-46.753
-0.106,1.228,0.716,101.807,-35.828,-57.068
-0.010,1.280,0.724,92.041,-28.809,-55.420
0.222,1.352,0.719,70.435,-8.362,-43.091
0.322,1.388,0.703,44.006,17.456,-19.775
0.279,1.438,0.709,16.174,42.908,9.644
0.209,1.412,0.673,-4.883,61.768,34.912
0.108,1.326,0.656,-16.418,65.918,47.424
0.042,1.276,0.659,-24.475,59.937,49.255
-0.016,1.243,0.578,-29.419,50.659,46.387

-0.453,1.933,-0.190,-216.370,103.943,-94.116
-0.518,1.713,-0.174,-162.781,60.364,-114.807
-0.704,1.225,-0.053,-119.934,28.687,-136.414
-0.896,0.914,0.161,-105.774,30.212,-164.062
-0.916,0.749,0.184,-123.901,65.918,-183.655
-0.937,0.647,-0.059,-167.236,124.695,-186.584
-0.582,0.479,-0.395,-216.003,194.336,-189.148
-0.168,0.507,-0.545,-248.474,252.380,-187.866
0.206,0.554,-0.558,-259.827,267.883,-191.284
0.479,0.615,-0.562,-253.174,251.648,-196.838
0.717,0.588,-0.531,-232.544,226.562,-190.369
0.832,0.465,-0.425,-202.881,196.411,-163.025
0.866,0.195,-0.298,-172.485,163.330,-119.507
0.887,-0.179,-0.236,-147.522,131.958,-79.163
0.855,-0.501,-0.259,-126.953,100.586,-56.824
0.764,-0.817,-0.364,-100.403,70.129,-55.786
0.585,-1.109,-0.389,-64.331,46.387,-79.041
0.331,-1.392,-0.339,-30.823,37.292,-123.108
0.317,-1.738,-0.287,-7.568,48.645,-178.101
0.704,-2.008,-0.267,-4.456,72.388,-238.770
1.065,-1.922,-0.180,-23.987,95.154,-290.527
1.376,-1.818,-0.114,-59.692,121.399,-308.899
1.372,-1.445,-0.377,-99.670,174.744,-287.659
1.503,-1.157,-0.575,-137.207,231.750,-275.269
2.112,-0.733,-0.752,-178.589,274.353,-256.104
3.080,0.178,-1.110,-215.393,318.787,-233.582
3.999,1.519,-1.151,-219.421,325.195,-192.200
4.000,2.217,-0.877,-150.818,241.272,-105.835
3.678,1.688,-0.312,-17.883,69.763,26.062
2.517,0.330,-0.018,105.713,-108.337,149.475
1.244,-0.860,-0.077,162.292,-230.774,219.666
0.192,-1.424,-0.330,156.189,-294.617,226.868
-0.618,-1.547,-0.669,123.413,-321.533,188.660
-1.208,-1.431,-0.994,85.388,-318.542,136.169
-1.518,-1.276,-1.198,44.128,-277.588,93.262
-1.454,-0.911,-1.254,1.038,-192.932,59.875
-0.953,-0.813,-1.266,-31.738,-92.163,34.241
-0.338,-0.486,-1.206,-51.392,-12.268,23.682
0.217,-0.097,-1.140,-60.913,28.076,23.743
0.533,0.114,-1.175,-58.105,27.405,32.959
0.622,0.258,-1.313,-44.128,0.732,47.546
0.549,0.359,-1.504,-20.752,-36.682,57.983
0.424,0.359,-1.678,12.451,-76.904,57.556
0.397,0.315,-1.680,51.697,-105.530,43.518
0.476,0.300,-1.490,86.548,-124.390,22.827
0.701,0.300,-1.286,110.046,-127.319,4.944
1.017,0.338,-1.098,120.728,-121.155,-5.371
1.315,0.383,-0.952,124.329,-119.812,-9.521
1.606,0.410,-0.818,126.404,-125.793,-4.944
1.852,0.449,-0.691,128.174,-135.498,6.714
1.943,0.479,-0.633,129.639,-148.621,30.212
1.840,0.434,-0.588,132.263,-159.912,61.340
1.543,0.401,-0.521,133.911,-169.128,90.576
1.347,0.319,-0.495,139.709,-169.312,109.192
1.270,0.187,-0.482,144.104,-163.513,115.479
1.233,0.073,-0.455,146.362,-157.288,119.385
1.226,-0.039,-0.325,149.475,-148.865,123.413
1.283,-0.146,-0.136,147.461,-134.155,129.333
1.358,-0.166,0.004,136.047,-113.647,139.160
1.461,-0.134,0.074,121.826,-98.206,147.766
1.542,-0.037,0.118,112.122,-97.046,151.245
1.544,0.093,0.166,107.971,-108.826,152.771
1.485,0.184,0.192,107.727,-125.244,158.569
1.334,0.199,0.218,111.877,-142.700,168.762
1.046,0.095,0.205,116.089,-159.546,175.537
0.711,-0.067,0.247,115.417,-166.992,176.575
0.374,-0.190,0.341,102.295,-154.175,175.598
0.134,-0.193,0.369,70.068,-116.455,171.143
0.077,0.009,0.296,27.222,-60.852,162.537
0.230,0.309,0.214,-2.747,-6.897,151.367
0.370,0.623,0.192,-9.949,25.330,137.451
0.440,0.813,0.176,0.244,27.832,122.375
0.505,0.864,0.219,21.057,7.812,109.131
0.444,0.821,0.282,42.297,-24.536,101.135
0.190,0.715,0.291,48.950,-55.664,98.389
-0.086,0.666,0.256,41.870,-68.359,96.741
-0.303,0.670,0.172,28.076,-56.030,90.637
-0.453,0.692,0.131,15.259,-27.954,80.750
-0.491,0.758,0.122,1.953,7.629,70.923
-0.402,0.900,0.116,-12.756,44.556,61.218
-0.245,1.058,0.058,-24.231,71.289,49.927
-0.138,1.181,0.014,-28.198,77.820,37.842
-0.069,1.299,0.009,-24.658,66.711,27.039
-0.008,1.443,-0.015,-18.433,47.302,16.968
-0.002,1.555,-0.066,-9.888,25.452,9.888
-0.024,1.556,-0.123,1.526,4.211,9.521
-0.122,1.528,-0.140,13.367,-11.536,14.648
-0.192,1.414,-0.117,20.569,-18.188,20.081
-0.294,1.373,-0.126,21.118,-10.132,27.466
-0.391,1.344,-0.094,18.677,8.240,32.227
-0.377,1.283,-0.060,15.442,33.081,29.602
-0.275,1.217,-0.026,10.498,54.504,21.790
-0.135,1.206,-0.007,2.930,65.918,11.780
0.036,1.199,-0.042,-4.578,66.589,2.075
0.178,1.222,-0.085,-9.094,57.495,-6.531
0.296,1.246,-0.106,-8.545,40.710,-14.282
0.318,1.256,-0.121,-5.005,20.325,-14.343
0.305,1.260,-0.145,-4.517,6.104,-6.165
0.223,1.262,-0.201,-6.042,3.723,5.615
0.113,1.270,-0.227,-5.981,5.127,16.235
0.017,1.250,-0.218,-3.662,6.775,21.973
-0.064,1.202,-0.201,-1.038,12.695,24.292
-0.092,1.162,-0.166,-2.136,23.682,23.621
-0.087,1.150,-0.160,-7.568,35.767,18.799
-0.064,1.196,-0.155,-14.709,44.861,12.207
-0.003,1.236,-0.177,-19.348,49.866,5.371
0.087,1.261,-0.192,-18.738,46.631,-1.221
0.211,1.257,-0.204,-14.404,33.875,-5.371
0.304,1.260,-0.198,-9.460,14.832,-3.540
0.305,1.276,-0.199,-8.240,-3.723,3.540
0.197,1.302,-0.230,-11.047,-14.893,13.550
0.026,1.327,-0.230,-15.381,-16.113,23.804
-0.099,1.349,-0.206,-22.705,-7.263,31.982
-0.144,1.360,-0.144,-32.776,10.193,38.025
-0.146,1.346,-0.083,-44.434,29.053,42.725
-0.112,1.383,-0.028,-57.678,42.908,44.373
-0.110,1.412,-0.033,-69.702,46.448,42.542
-0.164,1.418,-0.048,-80.017,37.659,38.696
-0.295,1.399,-0.056,-88.440,25.024,35.400

-0.994,1.597,-0.148,-147.766,38.086,20.264
-1.116,1.562,-0.220,-159.241,36.255,15.320
-1.231,1.518,-0.332,-172.485,31.250,7.385
-1.347,1.506,-0.449,-187.256,28.320,-6.104
-1.409,1.515,-0.573,-200.134,36.987,-22.400
-1.415,1.526,-0.654,-206.909,53.040,-37.537
-1.374,1.500,-0.641,-206.543,71.655,-49.988
-1.309,1.379,-0.651,-202.759,88.135,-60.608
-1.244,1.205,-0.591,-195.984,94.543,-75.928
-1.178,0.973,-0.489,-188.538,89.783,-98.572
-1.102,0.716,-0.452,-185.486,81.848,-125.183
-0.980,0.531,-0.505,-187.195,73.303,-157.104
-0.858,0.364,-0.559,-186.890,63.171,-193.298
-0.740,0.210,-0.590,-181.824,54.199,-228.455
-0.630,0.066,-0.625,-174.255,51.025,-256.531
-0.496,-0.185,-0.657,-167.175,57.739,-274.963
-0.305,-0.417,-0.695,-163.330,77.393,-283.447
-0.055,-0.723,-0.716,-159.668,105.469,-280.579
0.289,-1.085,-0.708,-157.654,138.550,-266.602
0.714,-1.272,-0.623,-162.354,174.255,-244.324
1.004,-1.440,-0.517,-171.753,200.562,-219.238
1.182,-1.626,-0.368,-175.415,209.473,-197.388
1.243,-1.967,-0.199,-163.513,181.702,-197.876
1.411,-2.224,0.035,-141.052,137.939,-235.840
1.452,-2.310,0.052,-118.347,82.703,-289.307
1.320,-2.255,-0.114,-107.117,27.954,-329.529
1.193,-2.246,-0.400,-104.431,3.662,-352.173
1.275,-2.507,-0.944,-112.183,32.288,-365.173
2.198,-2.089,-1.718,-156.555,120.789,-375.549
3.164,-0.798,-2.635,-223.694,189.453,-381.592
3.995,1.452,-2.389,-221.497,286.743,-355.347
4.000,2.681,-1.380,-129.822,299.561,-234.436
4.000,1.963,-0.062,10.986,218.933,-42.725
3.703,0.377,0.755,125.122,77.820,140.198
2.522,-1.253,1.048,177.368,-80.322,251.282
1.254,-2.167,0.674,170.776,-213.745,278.564
0.195,-2.275,-0.049,115.845,-308.105,238.464
-0.561,-1.870,-0.714,50.720,-351.318,159.668
-0.901,-1.287,-1.143,3.174,-335.144,86.060
-0.940,-0.839,-1.401,-23.682,-277.283,49.622
-0.791,-0.574,-1.493,-38.025,-204.102,44.556
-0.566,-0.505,-1.491,-44.983,-134.460,52.124
-0.106,-0.540,-1.523,-50.171,-82.214,54.565
0.243,-0.310,-1.542,-55.847,-49.622,59.021
0.550,-0.096,-1.726,-59.509,-41.626,66.650
0.697,0.097,-2.044,-47.058,-57.617,80.688
0.754,0.338,-2.250,-12.268,-94.421,93.018
0.754,0.373,-2.306,40.955,-147.766,97.839
0.865,0.271,-2.208,102.234,-186.340,103.149
0.992,0.126,-2.021,160.278,-198.792,109.802
1.101,-0.010,-1.644,201.233,-208.374,110.229
1.248,-0.085,-1.259,227.173,-214.600,108.826
1.411,-0.123,-0.922,242.554,-212.646,112.061
1.500,-0.169,-0.660,247.925,-211.365,121.460
1.481,-0.249,-0.465,243.530,-212.830,132.690
1.393,-0.269,-0.278,229.309,-208.435,143.372
1.262,-0.247,-0.214,207.031,-194.458,156.372
1.128,-0.197,-0.273,185.730,-177.917,170.227
1.039,-0.162,-0.365,173.706,-163.269,178.284
0.991,-0.117,-0.378,170.349,-150.696,179.199
0.976,-0.068,-0.300,170.288,-142.029,179.504
0.934,0.005,-0.292,166.199,-136.536,181.946
0.948,0.076,-0.335,161.072,-132.812,183.777
0.966,0.134,-0.338,164.490,-131.348,184.326
1.037,0.125,-0.302,174.255,-132.629,184.937
1.125,0.150,-0.240,184.387,-137.390,187.317
1.229,0.199,-0.140,192.017,-143.799,187.500
1.167,0.224,-0.063,199.951,-157.410,189.087
0.976,0.180,0.089,207.581,-177.490,196.167
0.804,0.113,0.243,207.764,-192.505,205.078
0.642,0.043,0.361,200.439,-196.289,210.205
0.482,0.028,0.461,187.866,-189.819,210.205
0.235,-0.001,0.544,172.791,-177.673,206.848
0.028,0.020,0.636,153.076,-160.339,201.294
-0.115,0.176,0.674,126.343,-133.972,191.711
-0.110,0.393,0.679,101.440,-106.201,177.917
-0.060,0.568,0.665,85.205,-86.487,164.978
-0.002,0.673,0.650,75.867,-74.585,156.372
-0.051,0.757,0.653,70.007,-69.458,151.245
-0.160,0.788,0.676,61.768,-64.758,145.142
-0.198,0.781,0.669,50.415,-56.519,135.193
-0.230,0.834,0.661,36.621,-52.063,123.535
-0.508,0.976,0.578,19.592,-53.589,110.107
-0.704,1.180,0.488,6.836,-54.382,90.942
-0.780,1.253,0.356,5.188,-66.406,67.505
-0.826,1.273,0.210,6.592,-83.252,41.809
-0.858,1.337,0.089,8.484,-87.463,17.395
-0.799,1.351,0.042,11.719,-72.754,-1.221
-0.776,1.299,0.014,10.071,-49.072,-8.728
-0.711,1.261,0.038,-0.427,-18.005,-6.348
-0.597,1.281,0.006,-18.005,20.386,-0.122
-0.457,1.348,-0.051,-35.645,60.669,5.371
-0.301,1.395,-0.063,-43.396,88.501,6.836
-0.156,1.422,-0.061,-39.917,95.154,5.310
-0.074,1.392,-0.052,-30.396,80.139,0.000
-0.096,1.303,-0.027,-18.433,50.903,-6.592
-0.215,1.211,-0.028,-9.888,22.888,-15.137
-0.325,1.106,-0.060,-7.324,2.686,-28.015
-0.415,1.058,-0.057,-8.850,-3.479,-42.114
-0.433,1.099,-0.095,-14.832,8.911,-52.551
-0.398,1.152,-0.116,-22.034,31.799,-55.786
-0.343,1.187,-0.139,-27.710,57.007,-50.415
-0.217,1.221,-0.100,-28.625,84.656,-39.917
-0.026,1.235,-0.013,-25.696,109.070,-29.419
0.147,1.252,0.062,-21.790,119.934,-19.958
0.306,1.237,0.138,-15.991,116.699,-12.207
0.419,1.230,0.225,-8.484,102.661,-7.324
0.454,1.202,0.278,-1.526,81.421,-5.432
0.410,1.128,0.346,4.089,55.725,-3.967
0.304,1.042,0.413,5.432,30.762,-4.395
0.173,0.970,0.412,1.221,12.512,-9.155
0.009,0.906,0.397,-5.493,6.775,-14.709
-0.155,0.904,0.371,-16.174,15.503,-18.738
-0.228,0.949,0.310,-32.349,35.156,-21.667
-0.223,0.971,0.250,-47.668,57.495,-22.217
-0.126,0.979,0.211,-59.387,78.064,-20.142
-0.039,1.032,0.170,-69.702,92.773,-18.005
-0.011,1.148,0.107,-78.125,96.436,-18.188
-0.043,1.267,0.010,-78.552,88.318,-21.362

-0.568,1.378,-0.591,-195.129,179.260,-143.494
-0.460,1.348,-0.514,-179.016,153.931,-166.199
-0.379,1.291,-0.459,-164.612,127.319,-186.035
-0.183,1.015,-0.459,-153.992,111.267,-208.923
-0.040,0.873,-0.479,-153.870,100.769,-225.342
0.069,0.905,-0.487,-162.292,92.102,-236.389
0.067,1.045,-0.489,-173.828,85.388,-237.122
0.049,1.185,-0.509,-184.998,87.646,-222.229
0.047,1.264,-0.620,-193.726,106.506,-192.688
0.036,1.210,-0.742,-195.374,132.019,-157.654
0.027,0.995,-0.855,-187.195,148.804,-127.930
0.014,0.729,-0.876,-173.401,156.250,-112.732
-0.044,0.438,-0.854,-160.278,159.363,-110.657
-0.077,0.117,-0.814,-149.963,161.377,-117.798
-0.089,-0.232,-0.820,-144.287,160.217,-133.545
0.036,-0.538,-0.865,-139.282,157.471,-155.579
0.156,-0.918,-1.002,-129.822,148.560,-184.937
0.354,-1.177,-1.048,-120.117,143.250,-224.548
0.686,-1.530,-1.131,-105.713,141.663,-258.484
1.047,-1.824,-1.069,-92.285,145.142,-276.001
1.348,-2.020,-0.830,-85.693,148.254,-279.053
1.534,-2.226,-0.688,-84.229,149.414,-277.527
1.655,-2.287,-0.605,-82.275,148.071,-279.480
1.532,-2.301,-0.753,-78.979,143.250,-294.189
1.787,-2.014,-0.634,-77.576,160.034,-321.106
1.806,-1.865,-0.851,-87.402,165.588,-331.726
2.318,-1.494,-1.328,-114.807,219.421,-327.515
3.354,-0.545,-2.006,-152.039,287.292,-309.753
4.000,1.013,-1.897,-150.757,346.985,-284.302
4.000,2.041,-0.864,-73.486,352.051,-216.309
4.000,1.736,0.434,50.537,274.475,-75.989
3.821,0.457,1.310,140.137,143.250,86.975
2.924,-0.829,1.709,158.203,-0.061,216.919
1.809,-1.810,1.394,126.099,-138.611,285.645
0.713,-2.402,0.674,68.848,-239.380,299.622
-0.544,-2.453,-0.271,-1.099,-312.256,269.470
-1.477,-2.049,-1.113,-68.115,-335.144,213.440
-1.880,-1.356,-1.777,-117.493,-280.334,146.118
-1.821,-0.667,-2.139,-129.456,-187.988,95.337
-1.589,-0.263,-2.268,-108.215,-112.122,67.993
-1.283,-0.123,-2.223,-70.801,-66.589,53.284
-0.939,-0.130,-2.066,-30.884,-44.678,39.490
-0.551,-0.115,-1.865,2.563,-30.701,22.156
-0.187,-0.128,-1.711,27.344,-21.667,9.949
0.270,-0.121,-1.576,43.823,-17.883,3.540
0.711,-0.079,-1.511,54.077,-25.085,1.892
1.149,-0.033,-1.509,60.608,-41.138,2.747
1.460,0.115,-1.556,67.505,-68.970,5.920
1.634,0.221,-1.602,83.069,-107.849,17.517
1.630,0.282,-1.588,107.605,-150.269,39.307
1.455,0.268,-1.476,136.475,-192.383,65.369
1.243,0.083,-1.393,162.720,-228.088,88.257
1.010,-0.137,-1.273,184.998,-244.629,105.469
0.858,-0.268,-1.063,196.472,-237.671,114.685
0.880,-0.316,-0.919,194.153,-210.632,117.798
1.085,-0.311,-0.785,188.293,-176.086,120.117
1.379,-0.244,-0.676,184.082,-145.020,127.075
1.670,-0.208,-0.630,185.425,-132.507,143.127
1.923,-0.233,-0.550,192.810,-141.602,163.696
2.005,-0.159,-0.415,202.209,-168.213,185.913
1.962,-0.088,-0.299,209.656,-197.693,212.708
1.756,-0.050,-0.272,212.891,-231.262,241.333
1.554,-0.057,-0.291,215.454,-265.686,263.184
1.382,-0.182,-0.424,221.741,-297.180,276.001
1.109,-0.308,-0.457,230.042,-323.059,280.151
0.788,-0.444,-0.400,232.483,-332.458,274.414
0.465,-0.531,-0.281,224.426,-311.401,265.869
0.322,-0.539,-0.032,206.055,-257.812,258.606
0.444,-0.437,0.222,183.044,-183.716,251.892
0.651,-0.271,0.452,157.166,-117.920,244.507
0.832,-0.010,0.613,130.371,-82.336,236.694
1.047,0.243,0.691,110.901,-81.970,226.135
1.260,0.416,0.725,104.126,-112.427,214.233
1.180,0.500,0.700,102.295,-162.781,208.740
0.852,0.473,0.562,95.032,-211.670,210.266
0.365,0.421,0.386,80.872,-243.958,213.806
-0.239,0.367,0.268,62.378,-250.488,212.402
-0.677,0.346,0.115,40.527,-223.816,201.782
-0.970,0.404,0.092,16.479,-177.734,182.190
-0.975,0.597,0.146,-5.310,-119.751,161.804
-0.752,0.746,0.227,-15.137,-57.739,147.766
-0.560,0.801,0.323,-14.465,-14.587,144.836
-0.543,0.742,0.383,-13.062,-1.099,145.569
-0.599,0.703,0.431,-14.954,-4.578,136.230
-0.871,0.723,0.567,-22.095,-13.184,115.662
-0.538,0.864,0.235,-43.213,-20.813,79.895
-0.465,0.950,0.157,-58.411,-42.480,48.584
-0.626,1.138,0.025,-65.735,-65.063,37.048
-0.744,1.176,-0.171,-66.162,-78.918,31.738
-0.822,1.156,-0.302,-61.829,-78.003,27.100
-0.902,1.151,-0.379,-57.739,-61.096,20.081
-0.951,1.175,-0.418,-54.626,-31.128,13.794
-0.908,1.148,-0.388,-50.720,6.104,9.338
-0.791,1.116,-0.311,-47.180,41.565,5.798
-0.646,1.066,-0.245,-48.706,65.674,1.465
-0.513,1.085,-0.222,-52.551,76.355,-6.409
-0.383,1.173,-0.260,-54.626,74.524,-20.203
-0.295,1.219,-0.287,-49.438,56.152,-35.156
-0.268,1.218,-0.303,-37.903,30.457,-45.227
-0.224,1.175,-0.301,-24.231,12.085,-50.598
-0.147,1.124,-0.307,-12.512,3.784,-53.040
-0.133,1.099,-0.304,-7.080,0.854,-51.514
-0.129,1.099,-0.282,-7.629,5.371,-45.776
-0.158,1.145,-0.268,-12.695,20.752,-35.706
-0.195,1.218,-0.247,-20.203,44.556,-21.851
-0.159,1.218,-0.216,-23.499,69.397,-8.423
-0.101,1.166,-0.160,-21.912,85.999,-0.671
-0.057,1.140,-0.093,-20.508,91.125,0.549
-0.020,1.138,-0.035,-20.020,88.379,-2.930
0.005,1.174,0.007,-18.005,80.078,-8.789
0.001,1.221,0.058,-11.719,63.110,-17.273
-0.122,1.215,0.082,-4.272,42.053,-24.109
-0.389,1.164,0.115,-2.258,26.855,-26.245
-0.725,1.072,0.194,-7.690,30.884,-24.109
-0.970,1.018,0.268,-24.658,65.918,-20.996
-1.017,0.982,0.276,-52.979,120.605,-21.423
-0.936,0.971,0.177,-86.121,168.213,-26.550
-0.773,0.993,0.011,-115.356,196.655,-37.537
-0.643,1.030,-0.156,-134.277,207.092,-52.246

0.734,-1.322,-0.632,-134.521,115.356,-127.441
0.630,-1.788,-0.447,-118.774,83.801,-140.747
0.632,-2.082,-0.360,-115.540,60.974,-175.720
0.772,-2.299,-0.426,-115.112,41.687,-224.731
0.685,-2.511,-0.717,-112.488,24.536,-276.001
0.973,-2.326,-0.777,-107.300,40.344,-327.393
1.010,-2.117,-1.000,-114.258,42.725,-354.370
1.163,-1.780,-1.273,-126.282,84.290,-363.037
1.775,-1.638,-1.831,-143.921,152.832,-350.281
2.466,-0.659,-2.503,-164.551,237.122,-321.716
3.359,0.327,-2.656,-158.936,320.129,-299.622
4.000,1.359,-2.076,-98.755,352.661,-264.648
3.970,1.711,-0.786,1.404,301.880,-178.528
3.426,1.016,0.611,111.816,206.238,-29.541
2.750,-0.188,1.412,173.035,108.093,140.625
1.909,-1.167,1.672,155.396,3.174,263.672
1.195,-1.842,1.331,93.628,-116.943,298.340
0.421,-2.105,0.358,28.625,-248.108,264.771
-0.554,-1.919,-0.625,-25.696,-356.506,204.895
-1.677,-1.278,-1.606,-74.341,-399.658,142.151
-2.357,-0.702,-2.345,-101.013,-360.107,85.205
-2.503,-0.201,-2.635,-87.341,-236.938,37.170
-2.005,0.005,-2.370,-50.171,-88.623,3.906
-1.174,-0.104,-1.840,-16.235,35.156,-10.132
-0.407,-0.299,-1.364,1.160,108.276,-15.564
0.311,-0.353,-1.052,2.136,132.568,-22.827
0.849,-0.309,-0.879,-4.578,114.441,-27.039
1.292,-0.100,-0.907,-12.451,76.843,-22.827
1.514,0.141,-1.068,-12.756,20.081,-9.888
1.656,0.140,-1.232,4.761,-44.800,7.874
1.621,0.072,-1.383,31.128,-105.652,34.302
1.555,-0.049,-1.461,56.458,-154.236,61.096
1.478,-0.214,-1.519,75.317,-188.110,82.458
1.412,-0.289,-1.517,90.576,-206.116,95.764
1.315,-0.325,-1.483,104.614,-217.407,105.652
1.233,-0.333,-1.453,114.929,-226.440,115.356
1.183,-0.319,-1.393,122.375,-228.516,124.878
1.179,-0.338,-1.360,130.493,-223.938,133.667
1.199,-0.363,-1.294,139.771,-217.224,141.113
1.246,-0.337,-1.145,147.949,-210.632,150.330
1.340,-0.338,-1.018,156.067,-204.712,163.879
1.417,-0.356,-0.891,163.330,-205.200,180.359
1.418,-0.381,-0.819,168.457,-212.708,195.679
1.388,-0.407,-0.740,173.523,-221.497,206.665
1.344,-0.389,-0.679,178.711,-231.628,212.891
1.299,-0.319,-0.564,179.810,-240.479,220.276
1.267,-0.322,-0.562,178.284,-250.305,228.210
1.229,-0.381,-0.526,180.115,-266.785,234.863
1.200,-0.441,-0.400,183.655,-282.776,236.267
1.168,-0.493,-0.274,180.969,-291.992,236.633
1.152,-0.483,-0.202,169.006,-289.856,238.159
1.115,-0.400,-0.146,152.039,-280.273,240.662
1.080,-0.272,-0.086,136.108,-269.958,245.605
0.999,-0.132,-0.078,124.268,-260.803,251.526
0.845,-0.015,-0.066,117.981,-254.333,256.470
0.652,0.009,-0.042,116.577,-253.296,260.437
0.467,-0.040,0.028,116.394,-251.892,262.878
0.340,-0.096,0.085,110.413,-239.990,260.803
0.193,-0.097,0.120,97.412,-219.543,256.104
0.141,-0.080,0.151,81.543,-191.589,250.366
0.163,0.020,0.207,70.862,-161.133,245.239
0.202,0.094,0.330,67.932,-140.015,238.708
0.159,0.108,0.386,66.467,-139.648,231.445
0.073,0.151,0.423,63.416,-151.794,220.581
-0.051,0.267,0.415,57.739,-167.114,198.669
-0.210,0.417,0.349,51.941,-186.096,169.922
-0.385,0.524,0.316,50.049,-203.857,142.395
-0.641,0.623,0.274,44.983,-212.341,122.437
-0.834,0.705,0.200,32.898,-201.599,109.680
-1.058,0.759,0.141,19.470,-173.401,101.379
-1.245,0.823,0.138,7.446,-125.854,96.130
-1.299,0.868,0.178,-3.662,-55.969,92.102
-1.189,0.972,0.190,-17.761,18.860,84.473
-0.966,1.061,0.220,-29.480,77.209,68.909
-0.685,1.135,0.272,-32.776,105.164,48.035
-0.427,1.256,0.341,-32.043,102.539,25.146
-0.227,1.407,0.327,-30.701,72.266,3.601
-0.164,1.482,0.250,-28.259,25.208,-12.878
-0.199,1.516,0.214,-24.048,-18.433,-22.888
-0.250,1.571,0.115,-21.729,-46.753,-28.259
-0.276,1.587,-0.002,-18.616,-61.401,-30.151
-0.333,1.560,-0.057,-14.038,-66.895,-25.574
-0.450,1.525,-0.084,-14.099,-55.054,-14.771
-0.579,1.475,-0.075,-18.616,-21.240,-0.488
-0.654,1.412,-0.034,-27.466,26.489,13.000
-0.617,1.289,0.037,-37.415,79.102,20.142
-0.504,1.167,0.139,-47.058,124.329,20.203
-0.306,1.127,0.223,-61.096,154.480,15.869
-0.098,1.133,0.203,-75.928,164.795,9.338
0.045,1.182,0.168,-82.214,149.963,0.366
0.096,1.217,0.115,-78.003,115.356,-10.437
0.141,1.209,0.059,-66.162,71.106,-21.790
0.132,1.176,0.037,-53.650,27.954,-30.090
0.105,1.198,-0.013,-48.767,0.061,-32.593
0.025,1.261,-0.124,-49.377,-11.414,-26.184
-0.129,1.284,-0.218,-49.744,-11.414,-12.573
-0.365,1.227,-0.198,-46.570,2.625,3.601
-0.581,1.121,-0.139,-48.096,34.485,18.799
-0.759,1.052,-0.105,-59.692,78.125,28.015
-0.777,1.079,-0.043,-77.026,131.531,28.748
-0.656,1.145,0.017,-93.750,179.199,22.217
-0.522,1.204,0.068,-105.896,205.261,10.315
-0.517,1.233,0.076,-112.305,205.078,-1.709
-0.614,1.225,0.126,-112.183,187.988,-9.033
-0.790,1.206,0.157,-113.831,169.678,-16.663
-1.010,1.191,0.134,-119.873,153.809,-25.574
-1.203,1.154,0.029,-127.380,138.245,-37.048
-1.333,1.106,-0.095,-134.888,125.854,-52.856
-1.394,1.138,-0.261,-146.179,128.113,-74.951
-1.299,1.233,-0.405,-157.898,143.066,-99.915
-1.123,1.320,-0.424,-162.292,160.156,-120.972
-0.937,1.313,-0.370,-159.424,169.678,-134.888
-0.755,1.243,-0.288,-154.358,166.138,-145.996
-0.626,1.122,-0.196,-150.757,150.208,-158.081
-0.525,0.964,-0.168,-149.719,126.465,-170.654
-0.458,0.801,-0.178,-151.794,99.792,-187.134
-0.452,0.652,-0.237,-154.053,75.500,-207.947
-0.502,0.511,-0.317,-156.250,57.678,-231.018
-0.537,0.415,-0.387,-162.720,54.626,-254.822

1.124,-2.497,-0.333,-153.931,74.280,-258.911
1.298,-2.420,-0.681,-166.748,33.936,-298.706
1.348,-2.130,-1.007,-165.955,15.015,-335.144
1.216,-1.906,-1.211,-151.733,25.146,-352.722
1.221,-1.769,-1.309,-134.216,68.237,-347.473
1.208,-1.810,-1.475,-124.268,140.808,-337.158
1.312,-1.531,-1.627,-131.348,225.525,-330.322
1.910,-1.253,-1.954,-147.827,298.523,-312.622
2.680,-0.473,-2.234,-160.095,352.722,-297.913
3.415,0.492,-2.005,-134.766,348.999,-271.912
3.684,1.015,-1.387,-62.744,282.471,-212.646
3.438,0.948,-0.541,33.203,168.457,-117.004
2.885,0.401,0.169,101.868,40.710,-3.113
2.049,-0.302,0.602,124.084,-72.021,101.990
1.270,-0.871,0.538,110.168,-157.227,166.687
0.628,-1.153,0.182,79.224,-221.497,180.359
0.163,-1.230,-0.285,49.927,-259.155,161.438
-0.174,-1.214,-0.671,23.315,-264.832,135.925
-0.391,-1.152,-0.901,-2.991,-233.704,117.310
-0.371,-1.044,-0.978,-28.442,-168.335,109.253
-0.145,-0.919,-1.028,-50.049,-92.163,109.985
0.340,-0.773,-1.040,-64.514,-27.222,115.356
0.664,-0.539,-1.153,-70.251,0.305,123.718
0.894,-0.332,-1.281,-65.063,-11.536,138.672
1.041,-0.193,-1.505,-45.105,-47.180,155.457
1.076,-0.156,-1.708,-10.803,-100.952,172.424
0.978,-0.279,-1.835,35.828,-165.161,187.866
0.782,-0.415,-1.777,82.825,-228.394,194.336
0.683,-0.616,-1.670,117.249,-275.146,187.500
0.444,-0.624,-1.524,135.315,-291.992,173.096
0.340,-0.626,-1.425,143.127,-268.494,163.574
0.252,-0.577,-1.233,143.372,-231.934,157.104
0.268,-0.479,-0.984,138.550,-189.209,150.269
0.436,-0.384,-0.808,133.545,-144.409,146.118
0.699,-0.266,-0.686,133.484,-108.948,144.165
1.026,-0.128,-0.577,139.160,-91.553,143.860
1.299,-0.036,-0.512,149.780,-96.191,147.034
1.463,0.036,-0.447,164.551,-121.399,153.809
1.583,0.036,-0.404,181.946,-157.104,164.978
1.666,-0.027,-0.368,200.073,-196.472,181.763
1.728,-0.106,-0.309,214.172,-234.009,202.820
1.674,-0.207,-0.269,222.046,-266.479,223.572
1.497,-0.284,-0.256,223.083,-294.006,240.906
1.292,-0.283,-0.260,218.201,-315.796,251.831
1.033,-0.218,-0.289,208.313,-329.712,256.897
0.792,-0.075,-0.264,197.998,-335.083,256.348
0.568,0.051,-0.195,191.101,-338.745,253.296
0.392,0.144,-0.106,188.293,-337.952,247.803
0.296,0.198,0.024,184.631,-331.177,241.760
0.194,0.240,0.178,176.453,-314.880,238.220
0.100,0.306,0.294,162.781,-288.391,236.816
0.036,0.371,0.393,147.583,-253.784,234.253
-0.033,0.423,0.557,132.202,-215.515,230.286
-0.166,0.522,0.669,113.159,-180.786,225.281
-0.235,0.661,0.687,92.224,-153.992,214.722
-0.373,0.703,0.707,77.209,-142.029,198.853
-0.411,0.762,0.722,69.031,-131.592,176.147
-0.446,0.808,0.712,62.073,-135.620,152.649
-0.468,0.907,0.711,52.551,-147.278,129.395
-0.552,0.972,0.707,41.321,-151.001,112.671
-0.704,0.979,0.709,31.067,-137.512,105.469
-0.863,0.997,0.653,17.395,-112.305,100.525
-0.930,1.029,0.532,0.488,-79.407,88.623
-0.894,1.130,0.444,-12.268,-45.654,68.787
-0.815,1.195,0.416,-17.822,-18.127,45.959
-0.691,1.200,0.374,-22.339,-2.380,25.696
-0.576,1.202,0.304,-28.076,6.775,9.277
-0.470,1.212,0.208,-34.546,13.489,-5.310
-0.349,1.312,0.124,-39.856,17.517,-18.188
-0.169,1.424,0.053,-38.635,18.250,-25.879
-0.046,1.439,0.000,-26.855,13.245,-23.865
-0.031,1.378,0.019,-12.146,3.357,-13.367
-0.088,1.278,0.060,-2.502,-2.686,-0.793
-0.159,1.179,0.083,-0.854,0.488,7.507
-0.207,1.090,0.148,-2.930,10.193,9.766
-0.220,1.001,0.195,-7.446,23.254,7.568
-0.231,0.940,0.225,-16.418,36.743,3.235
-0.194,0.935,0.234,-29.541,51.392,-1.343
-0.160,0.976,0.196,-43.213,62.866,-4.639
-0.107,1.029,0.135,-51.697,68.115,-8.423
-0.005,1.056,0.109,-52.734,67.017,-11.169
0.099,1.073,0.102,-50.171,61.401,-10.498
0.117,1.107,0.110,-48.096,55.298,-4.089
0.094,1.107,0.125,-46.204,52.246,5.798
0.065,1.079,0.146,-42.419,51.636,16.296
0.082,1.051,0.170,-36.865,50.842,21.667
0.102,1.011,0.187,-29.114,44.556,20.508
0.095,0.983,0.219,-20.813,30.762,16.296
0.056,0.930,0.250,-13.184,14.221,10.681
-0.008,0.867,0.265,-7.568,1.404,4.089
-0.075,0.829,0.246,-6.226,-4.395,-2.930
-0.090,0.825,0.226,-8.118,-5.005,-9.277
-0.111,0.833,0.217,-11.780,-2.136,-13.367
-0.134,0.852,0.176,-18.066,5.981,-13.489
-0.170,0.910,0.106,-23.621,20.203,-11.414
-0.229,0.998,0.041,-27.649,38.269,-9.521
-0.261,1.047,0.012,-29.236,57.495,-8.728
-0.219,1.085,0.037,-27.893,78.247,-9.888
-0.152,1.132,0.092,-27.649,95.642,-14.404
-0.111,1.184,0.153,-30.334,104.492,-21.667
-0.141,1.227,0.215,-35.278,105.835,-29.053
-0.251,1.233,0.230,-42.114,105.530,-37.109
-0.375,1.222,0.192,-50.781,108.521,-47.546
-0.476,1.242,0.093,-61.768,117.554,-63.782
-0.548,1.297,0.003,-72.449,128.906,-83.618
-0.652,1.288,-0.121,-83.313,144.409,-100.891
-0.728,1.280,-0.231,-99.365,174.133,-114.197
-0.777,1.327,-0.326,-118.652,217.468,-122.864
-0.754,1.382,-0.400,-140.320,264.526,-124.939
-0.675,1.461,-0.485,-161.926,309.998,-122.742
-0.562,1.583,-0.506,-178.284,342.163,-123.596
-0.350,1.724,-0.443,-186.462,352.295,-130.432
-0.131,1.737,-0.329,-181.213,335.754,-145.752
-0.036,1.667,-0.114,-162.109,294.067,-164.734
-0.039,1.469,0.098,-143.738,243.347,-179.199
-0.130,1.215,0.144,-144.226,200.073,-188.354
-0.275,0.974,0.049,-160.278,169.434,-196.411
-0.500,0.807,-0.220,-185.425,152.344,-206.543
-0.692,0.768,-0.555,-213.684,158.875,-221.252

0.829,-2.076,-0.217,-115.601,233.398,-237.305
1.240,-2.524,0.010,-133.301,222.473,-218.079
1.531,-2.824,0.168,-154.846,188.477,-203.430
1.523,-2.953,0.229,-174.866,125.916,-198.547
1.425,-2.960,0.066,-189.209,54.871,-210.205
1.275,-2.804,-0.507,-196.350,-2.197,-239.685
1.042,-2.446,-1.274,-193.542,-24.475,-288.391
1.450,-1.943,-1.971,-181.274,31.189,-356.323
2.204,-0.895,-2.636,-163.818,128.906,-413.330
3.159,0.791,-2.197,-128.296,229.431,-405.884
3.640,1.970,-1.036,-78.491,313.721,-297.302
3.651,1.757,-0.106,-18.372,349.304,-102.966
3.373,0.695,0.763,45.044,304.199,104.431
2.911,-0.701,1.598,95.703,197.632,241.150
2.204,-1.874,1.695,98.206,46.936,301.819
1.378,-2.337,0.982,54.871,-118.286,305.237
0.398,-2.235,-0.027,-5.554,-299.255,267.151
-0.539,-1.717,-1.095,-50.476,-443.848,204.529
-1.236,-1.106,-1.964,-57.556,-511.047,127.075
-1.552,-0.626,-2.256,-38.025,-506.653,52.979
-1.520,-0.538,-2.231,-9.521,-435.242,7.629
-1.302,-0.566,-2.060,0.061,-317.139,-8.728
-0.828,-0.428,-1.871,-13.977,-173.889,-7.629
-0.251,-0.147,-1.721,-34.729,-42.236,5.493
0.340,-0.039,-1.589,-45.227,50.964,29.846
0.925,-0.007,-1.469,-39.124,103.882,56.641
1.449,-0.026,-1.372,-21.240,101.257,80.261
1.875,-0.054,-1.283,5.127,53.406,96.436
2.005,-0.037,-1.386,38.330,-28.442,107.178
2.151,-0.130,-1.571,77.271,-112.122,117.859
2.155,-0.126,-1.770,116.333,-194.885,128.845
2.054,-0.156,-1.900,154.297,-276.733,142.517
1.900,-0.254,-1.844,191.162,-341.858,159.912
1.725,-0.399,-1.676,219.666,-375.305,184.448
1.519,-0.583,-1.464,237.427,-378.967,210.693
1.235,-0.679,-1.191,243.042,-364.868,230.225
1.064,-0.674,-0.896,237.793,-329.407,246.887
0.927,-0.683,-0.646,228.027,-285.095,263.428
0.891,-0.708,-0.363,218.567,-242.798,273.621
0.926,-0.757,-0.107,211.914,-213.806,273.499
1.003,-0.798,0.106,203.857,-200.989,267.944
1.055,-0.789,0.247,190.063,-198.059,260.681
1.071,-0.651,0.298,170.471,-199.402,249.817
1.056,-0.369,0.299,151.123,-208.679,237.854
1.081,-0.087,0.274,137.329,-224.548,229.858
1.057,0.072,0.167,130.981,-243.591,232.605
0.982,0.147,0.062,133.789,-262.939,243.835
0.786,0.099,0.034,141.479,-276.428,258.545
0.520,-0.023,0.120,147.888,-270.325,274.231
0.308,-0.161,0.271,147.156,-243.164,285.339
0.209,-0.187,0.395,136.169,-203.186,285.034
0.178,-0.112,0.525,121.277,-159.912,272.766
0.228,-0.011,0.667,108.521,-127.319,256.470
0.291,0.121,0.804,97.839,-116.638,239.197
0.307,0.262,0.911,86.304,-126.709,218.384
0.156,0.373,0.926,74.585,-152.039,198.181
-0.036,0.390,0.917,63.477,-176.331,179.260
-0.183,0.422,0.859,50.232,-193.604,157.837
-0.386,0.410,0.807,34.790,-200.073,135.986
-0.585,0.444,0.714,12.268,-186.646,117.554
-0.767,0.581,0.591,-19.226,-158.691,100.342
-0.893,0.794,0.427,-51.453,-119.141,82.336
-0.927,1.057,0.288,-74.219,-72.021,63.782
-0.877,1.306,0.180,-83.618,-24.719,46.265
-0.736,1.521,0.143,-80.627,8.545,31.799
-0.584,1.642,0.195,-65.002,23.315,21.484
-0.420,1.615,0.283,-44.128,22.644,17.639
-0.299,1.512,0.420,-27.161,12.390,16.846
-0.199,1.417,0.505,-20.203,3.662,13.916
-0.074,1.286,0.533,-17.395,-5.554,6.958
0.004,1.230,0.541,-19.043,-21.545,0.793
-0.048,1.203,0.507,-27.893,-35.645,-0.916
-0.220,1.161,0.377,-41.077,-36.072,4.150
-0.397,1.115,0.216,-52.673,-21.667,10.315
-0.510,1.071,0.105,-60.852,-0.183,8.972
-0.535,1.039,0.060,-67.566,26.611,2.808
-0.486,0.990,0.037,-73.181,55.908,-2.747
-0.400,0.952,0.010,-80.688,80.750,-6.897
-0.275,0.955,-0.021,-89.844,98.694,-12.512
-0.124,0.972,-0.115,-96.375,106.262,-19.287
0.016,1.012,-0.187,-95.154,97.778,-26.978
0.117,1.050,-0.201,-86.243,73.608,-33.997
0.176,1.051,-0.232,-75.439,44.006,-38.208
0.209,1.066,-0.322,-67.078,21.667,-39.368
0.218,1.083,-0.426,-56.885,5.737,-35.278
0.156,1.094,-0.510,-43.945,-5.920,-26.184
0.042,1.084,-0.523,-31.067,-10.620,-15.381
-0.065,1.062,-0.496,-21.790,-5.493,-5.127
-0.171,1.033,-0.482,-18.677,9.583,3.113
-0.257,1.000,-0.447,-17.822,30.273,10.132
-0.339,0.952,-0.399,-17.639,51.941,13.245
-0.390,0.920,-0.328,-19.348,76.904,10.986
-0.435,0.930,-0.253,-25.574,101.624,4.700
-0.474,0.954,-0.207,-33.447,124.268,-4.883
-0.484,1.027,-0.182,-41.138,141.724,-18.494
-0.474,1.119,-0.167,-45.471,148.926,-36.194
-0.470,1.167,-0.150,-46.936,143.860,-54.382
-0.486,1.200,-0.132,-47.607,138.367,-69.824
-0.477,1.214,-0.105,-48.340,139.648,-82.092
-0.495,1.232,-0.102,-52.917,145.386,-89.478
-0.557,1.242,-0.093,-61.157,152.344,-90.942
-0.567,1.263,-0.066,-72.754,165.894,-88.196
-0.498,1.316,-0.099,-88.074,187.012,-86.548
-0.329,1.350,-0.122,-99.365,204.224,-87.402
-0.120,1.352,-0.140,-103.271,206.543,-92.102
-0.021,1.337,-0.166,-100.037,191.711,-101.135
-0.026,1.286,-0.183,-90.820,169.312,-113.525
-0.062,1.214,-0.149,-83.557,151.978,-127.075
-0.115,1.100,-0.129,-84.656,145.386,-140.320
-0.089,1.011,-0.125,-93.933,150.513,-153.870
0.043,1.047,-0.134,-108.582,163.879,-165.894
0.185,1.118,-0.166,-125.061,174.988,-171.021
0.302,1.121,-0.201,-137.756,179.810,-166.626
0.390,1.049,-0.246,-144.836,174.500,-158.813
0.414,0.979,-0.281,-150.452,159.363,-152.649
0.377,0.901,-0.350,-157.532,138.062,-149.109
0.310,0.810,-0.448,-163.208,118.408,-148.926
0.250,0.750,-0.577,-163.513,100.769,-155.151
0.267,0.638,-0.707,-154.358,80.688,-165.771

0.841,-1.726,-0.267,-95.947,78.796,-175.842
0.876,-1.898,-0.264,-91.064,57.983,-200.134
0.920,-1.927,-0.302,-89.172,44.800,-232.422
0.763,-1.951,-0.451,-90.759,46.753,-262.451
0.911,-1.761,-0.601,-98.877,82.397,-290.100
1.185,-1.585,-0.904,-120.728,114.502,-300.659
1.679,-1.120,-1.435,-145.264,168.457,-302.795
2.405,-0.329,-1.758,-151.062,226.440,-296.204
3.096,0.581,-1.600,-124.817,261.536,-267.517
3.266,1.041,-1.164,-54.932,235.596,-195.679
3.141,0.889,-0.451,22.644,169.983,-87.097
2.740,0.215,-0.011,73.425,88.440,36.377
2.193,-0.598,0.209,99.915,5.493,134.644
1.562,-1.150,0.253,100.281,-80.017,184.021
0.950,-1.531,0.003,84.595,-167.480,196.533
0.365,-1.681,-0.362,48.889,-245.178,185.181
-0.066,-1.570,-0.774,0.610,-288.757,155.701
-0.238,-1.314,-1.262,-43.701,-288.879,118.652
-0.216,-0.900,-1.626,-69.641,-256.348,88.013
-0.048,-0.546,-1.842,-73.730,-212.158,74.158
0.177,-0.331,-2.012,-64.087,-174.744,77.515
0.440,-0.121,-2.080,-43.701,-147.461,92.651
0.705,0.069,-2.102,-11.047,-137.512,116.455
0.969,0.158,-1.992,33.386,-148.254,143.921
1.065,0.049,-1.852,84.778,-174.561,177.246
1.216,-0.121,-1.566,133.362,-186.340,208.923
1.359,-0.292,-1.303,174.561,-198.975,234.680
1.456,-0.529,-1.003,208.008,-228.943,249.268
1.524,-0.797,-0.683,232.910,-267.273,248.352
1.478,-0.951,-0.386,238.892,-301.636,233.032
1.453,-0.907,-0.161,224.609,-324.402,212.402
1.481,-0.774,-0.100,200.378,-335.999,197.021
1.434,-0.638,-0.115,176.880,-340.515,193.237
1.289,-0.549,-0.101,155.945,-333.313,201.904
1.092,-0.465,-0.098,131.592,-309.448,219.971
0.938,-0.376,-0.106,108.215,-268.250,238.831
0.894,-0.287,-0.076,97.839,-221.985,251.831
0.902,-0.217,0.015,98.328,-186.523,256.958
0.903,-0.170,0.096,101.685,-167.664,255.920
0.942,-0.141,0.174,106.323,-164.062,253.845
0.988,-0.114,0.253,112.488,-174.194,251.709
0.986,-0.076,0.308,116.516,-192.322,246.277
0.922,-0.042,0.403,119.568,-213.745,239.014
0.746,-0.071,0.520,122.437,-236.938,233.948
0.459,-0.134,0.602,118.958,-259.949,229.858
0.149,-0.144,0.722,103.088,-276.611,223.389
-0.180,-0.081,0.765,70.984,-277.283,216.675
-0.572,0.038,0.670,27.161,-257.568,207.825
-0.940,0.262,0.547,-17.517,-218.201,193.848
-1.145,0.564,0.385,-55.908,-163.330,172.546
-1.206,0.916,0.177,-85.510,-101.563,146.301
-1.163,1.242,0.048,-98.267,-40.161,120.667
-1.013,1.441,-0.001,-92.773,12.512,98.328
-0.797,1.565,-0.010,-79.834,51.331,81.543
-0.652,1.655,-0.005,-68.665,72.571,72.388
-0.561,1.806,-0.067,-62.012,76.660,68.176
-0.485,1.908,-0.171,-52.551,62.683,63.171
-0.460,1.866,-0.212,-34.119,35.583,56.030
-0.490,1.743,-0.154,-10.986,5.371,50.659
-0.561,1.523,-0.073,5.493,-17.517,45.227
-0.628,1.310,-0.032,9.705,-27.283,37.109
-0.667,1.178,-0.028,2.869,-21.667,26.672
-0.676,1.108,-0.058,-10.559,-3.418,13.367
-0.628,1.113,-0.110,-26.245,23.254,-0.854
-0.503,1.143,-0.165,-39.612,53.772,-13.000
-0.329,1.133,-0.211,-49.561,81.665,-23.376
-0.123,1.106,-0.244,-57.434,101.746,-32.837
0.059,1.086,-0.250,-60.486,111.877,-40.649
0.235,1.079,-0.230,-59.570,110.352,-45.410
0.390,1.058,-0.201,-55.786,98.633,-47.180
0.510,1.037,-0.185,-50.598,79.407,-47.119
0.601,1.020,-0.148,-42.297,55.908,-46.753
0.648,1.026,-0.120,-33.813,31.250,-44.800
0.672,1.060,-0.117,-30.884,10.986,-38.818
0.627,1.122,-0.158,-31.128,-1.343,-28.198
0.584,1.184,-0.186,-29.358,-4.272,-13.916
0.508,1.197,-0.190,-23.865,-2.319,1.221
0.438,1.143,-0.150,-16.724,4.456,16.052
0.370,1.066,-0.105,-12.085,15.930,28.992
0.318,1.003,-0.035,-11.292,30.579,38.025
0.288,0.949,0.034,-13.672,45.349,42.725
0.300,0.916,0.092,-17.334,56.274,43.823
0.327,0.894,0.125,-21.545,60.669,42.053
0.336,0.905,0.116,-26.794,57.434,38.391
0.322,0.944,0.079,-31.128,47.241,33.752
0.275,0.990,0.037,-31.616,32.166,29.297
0.145,1.021,-0.048,-30.457,16.479,25.391
-0.049,1.061,-0.140,-29.724,4.517,21.057
-0.314,1.070,-0.217,-31.616,1.831,16.357
-0.615,1.054,-0.292,-37.415,17.700,9.949
-0.920,1.065,-0.407,-49.683,56.580,0.488
-1.113,1.162,-0.529,-66.589,116.028,-10.803
-1.106,1.284,-0.591,-83.252,190.552,-24.475
-0.937,1.393,-0.594,-96.008,258.179,-38.818
-0.724,1.445,-0.504,-106.506,294.983,-51.636
-0.585,1.436,-0.383,-115.417,296.875,-63.782
-0.484,1.428,-0.284,-120.300,272.095,-76.599
-0.394,1.402,-0.212,-124.023,230.042,-90.088
-0.341,1.343,-0.215,-126.465,176.697,-104.126
-0.291,1.298,-0.279,-126.526,119.263,-119.995
-0.242,1.253,-0.370,-122.192,64.148,-135.986
-0.249,1.168,-0.418,-117.981,19.409,-148.193
-0.367,1.111,-0.495,-120.667,-3.784,-153.748
-0.495,1.120,-0.619,-129.211,-2.136,-157.898
-0.572,1.193,-0.737,-140.381,19.043,-164.062
-0.576,1.243,-0.830,-147.583,49.561,-170.410
-0.528,1.197,-0.866,-146.179,80.017,-174.011
-0.465,1.039,-0.843,-138.733,105.164,-175.049
-0.394,0.759,-0.771,-129.089,120.056,-178.894
-0.301,0.473,-0.701,-119.690,126.465,-189.758
-0.223,0.204,-0.597,-110.596,126.160,-208.069
-0.171,-0.030,-0.501,-104.126,116.882,-231.140
-0.086,-0.247,-0.401,-98.633,100.647,-257.935
0.128,-0.493,-0.381,-92.346,74.097,-284.302
0.483,-0.651,-0.430,-84.656,40.710,-306.274
0.651,-0.676,-0.388,-77.026,6.836,-314.209
0.681,-0.771,-0.396,-69.153,-14.282,-301.636
0.683,-1.065,-0.458,-51.086,-19.836,-273.682
0.637,-1.513,-0.441,-27.954,-14.160,-243.469

0.437,-2.345,-0.238,3.723,36.560,-234.253
0.380,-2.686,-0.091,9.827,75.500,-264.343
0.364,-2.918,0.040,1.099,115.723,-308.472
0.470,-3.062,0.019,-26.794,162.903,-355.347
0.646,-3.020,-0.322,-75.745,227.295,-398.560
1.515,-2.750,-0.541,-143.494,321.838,-431.213
2.722,-2.115,-1.331,-224.487,401.428,-438.538
4.000,-0.663,-2.029,-295.288,477.173,-434.998
4.000,0.847,-2.438,-298.706,471.069,-400.146
4.000,1.979,-1.728,-187.195,336.548,-295.471
4.000,2.046,-0.638,-23.926,154.297,-117.188
3.398,0.829,-0.090,106.201,6.775,94.788
2.382,-0.531,0.226,172.791,-88.135,265.137
1.378,-1.582,0.489,186.279,-162.842,350.830
0.445,-2.283,0.494,165.222,-225.586,353.821
-0.341,-2.556,0.239,119.934,-273.071,301.025
-0.875,-2.389,-0.026,51.941,-293.396,219.482
-1.101,-1.948,-0.406,-23.254,-278.748,138.306
-0.857,-1.580,-0.686,-87.097,-216.064,78.613
-0.461,-1.172,-1.007,-129.456,-145.081,39.917
-0.006,-0.836,-1.284,-146.790,-108.643,18.982
0.373,-0.494,-1.571,-148.193,-107.422,13.916
0.658,-0.144,-1.931,-142.029,-112.793,24.170
0.776,0.171,-2.289,-121.155,-123.047,45.410
0.896,0.329,-2.463,-74.280,-137.573,73.425
0.940,0.286,-2.515,-8.789,-154.114,104.248
1.064,0.096,-2.384,57.373,-156.311,130.859
1.201,0.046,-2.098,112.854,-148.315,152.161
1.393,-0.065,-1.748,161.133,-142.639,175.659
1.628,-0.203,-1.417,203.430,-140.625,196.594
1.826,-0.354,-1.075,237.915,-152.710,212.463
1.910,-0.483,-0.719,261.169,-183.228,228.027
2.014,-0.579,-0.408,271.545,-211.853,245.178
2.077,-0.724,-0.227,271.240,-239.136,259.949
1.992,-0.831,-0.114,261.169,-270.630,262.817
1.797,-0.784,-0.058,243.042,-306.580,252.502
1.559,-0.651,-0.059,220.520,-343.689,240.967
1.321,-0.585,-0.086,200.623,-374.207,239.807
1.064,-0.586,-0.079,183.044,-387.756,249.329
0.788,-0.591,-0.038,164.307,-381.836,263.306
0.558,-0.523,-0.009,142.090,-356.689,275.574
0.433,-0.338,0.053,118.835,-315.613,280.701
0.346,-0.029,0.094,98.755,-271.240,277.100
0.318,0.211,0.163,90.698,-234.253,269.348
0.347,0.321,0.340,97.168,-209.473,267.273
0.342,0.337,0.523,105.347,-195.007,272.766
0.307,0.376,0.622,104.065,-184.937,278.320
0.337,0.464,0.670,96.802,-177.673,276.672
0.340,0.505,0.732,90.271,-168.457,271.851
0.245,0.596,0.712,80.322,-154.785,271.057
0.041,0.654,0.636,68.176,-143.188,268.494
-0.224,0.638,0.595,61.462,-137.817,259.033
-0.460,0.633,0.626,55.298,-130.920,241.211
-0.666,0.678,0.655,42.297,-114.197,214.722
-0.810,0.745,0.653,20.569,-87.952,184.448
-0.856,0.799,0.613,-5.005,-58.594,156.921
-0.863,0.867,0.535,-30.823,-30.945,134.583
-0.829,1.013,0.453,-55.420,-2.869,117.065
-0.856,1.173,0.341,-73.975,23.132,103.760
-0.859,1.242,0.192,-81.787,39.795,93.323
-0.869,1.294,0.106,-83.069,50.110,79.651
-0.769,1.369,0.029,-75.928,52.856,59.143
-0.623,1.340,-0.003,-61.035,40.405,33.630
-0.495,1.271,0.014,-45.105,19.043,8.972
-0.427,1.219,0.004,-36.926,1.282,-9.644
-0.359,1.205,-0.024,-34.729,-8.972,-22.400
-0.281,1.209,-0.068,-33.142,-11.963,-30.701
-0.251,1.163,-0.065,-29.297,-10.559,-34.119
-0.233,1.092,-0.029,-24.170,-3.784,-30.457
-0.213,1.001,0.001,-26.123,13.733,-23.376
-0.200,0.968,0.003,-38.757,38.940,-18.250
-0.144,0.964,-0.017,-53.040,62.866,-15.869
-0.093,0.977,-0.017,-62.195,79.041,-14.160
-0.043,0.994,0.006,-69.458,89.539,-11.169
0.038,1.001,0.014,-74.524,97.717,-8.118
0.132,1.012,0.004,-74.158,98.328,-5.005
0.210,1.026,0.000,-68.726,87.646,-3.296
0.243,1.013,-0.003,-60.181,67.993,-2.686
0.234,1.008,-0.033,-48.950,45.105,-1.831
0.196,1.003,-0.046,-35.645,21.790,-2.625
0.130,0.970,-0.022,-23.071,1.709,-3.296
0.046,0.936,-0.006,-14.832,-7.385,-2.380
-0.040,0.901,-0.005,-11.536,-5.798,0.793
-0.124,0.878,0.013,-11.719,3.357,4.578
-0.188,0.877,0.018,-14.526,20.447,7.141
-0.204,0.875,0.031,-17.456,39.490,8.057
-0.209,0.865,0.050,-20.264,56.396,5.798
-0.211,0.886,0.081,-24.109,69.641,0.000
-0.211,0.941,0.093,-29.480,79.773,-7.874
-0.198,1.000,0.106,-35.156,86.426,-18.066
-0.190,1.090,0.070,-40.527,87.341,-29.846
-0.244,1.211,0.008,-41.870,79.468,-43.030
-0.421,1.274,-0.008,-39.551,66.101,-55.908
-0.642,1.295,-0.024,-39.429,66.223,-66.223
-0.765,1.304,-0.026,-45.837,90.027,-75.317
-0.734,1.297,-0.061,-58.960,127.197,-82.886
-0.574,1.299,-0.153,-75.439,161.743,-92.102
-0.349,1.361,-0.191,-89.233,181.213,-103.882
-0.149,1.460,-0.175,-98.328,184.509,-114.868
-0.021,1.550,-0.167,-102.966,177.368,-120.422
0.033,1.563,-0.149,-102.417,160.461,-119.812
0.020,1.493,-0.141,-100.525,136.292,-117.493
-0.059,1.368,-0.157,-101.563,113.159,-117.737
-0.181,1.248,-0.180,-106.934,98.938,-119.629
-0.328,1.161,-0.208,-116.699,97.473,-122.986
-0.424,1.135,-0.250,-133.606,109.375,-129.028
-0.445,1.120,-0.344,-153.687,128.357,-136.841
-0.389,1.092,-0.432,-169.128,145.447,-145.874
-0.296,1.049,-0.486,-175.049,152.832,-158.081
-0.182,1.002,-0.519,-173.035,146.606,-174.927
-0.072,0.927,-0.557,-165.039,129.639,-193.237
0.033,0.804,-0.578,-149.536,105.652,-210.449
0.097,0.649,-0.576,-129.089,74.585,-227.112
0.170,0.475,-0.580,-109.741,44.617,-242.554
0.302,0.289,-0.580,-92.102,22.705,-254.272
0.506,0.078,-0.608,-77.942,9.949,-260.315
0.729,-0.077,-0.642,-67.505,3.784,-258.545
0.783,-0.176,-0.626,-59.326,0.366,-247.437
0.719,-0.330,-0.627,-50.171,-0.854,-227.234

0.931,-1.412,-0.494,41.931,58.289,-291.199
1.168,-1.283,-0.400,53.223,65.247,-302.368
1.239,-1.148,-0.359,58.350,68.115,-290.100
1.142,-1.058,-0.347,57.556,79.590,-261.475
1.045,-1.031,-0.333,58.777,107.788,-229.065
0.965,-1.121,-0.293,63.965,143.005,-201.782
0.962,-1.234,-0.220,64.636,192.505,-187.378
1.313,-1.128,-0.078,52.429,254.883,-184.448
1.703,-0.945,0.012,27.100,289.062,-175.232
2.091,-0.680,0.029,-1.526,305.847,-158.264
2.234,-0.435,-0.015,-20.142,298.218,-127.380
2.247,-0.201,0.031,-32.593,276.794,-84.839
2.217,0.028,0.067,-47.241,251.160,-34.729
2.237,0.087,-0.005,-55.359,214.417,28.503
2.282,-0.008,-0.116,-50.842,153.748,95.703
2.269,-0.190,-0.308,-39.124,72.144,153.442
2.171,-0.413,-0.560,-20.935,-23.560,204.346
1.936,-0.702,-0.845,1.221,-121.460,249.512
1.579,-1.089,-1.155,21.118,-201.843,284.729
1.160,-1.404,-1.364,34.241,-252.502,296.997
0.784,-1.549,-1.458,43.213,-270.142,284.058
0.523,-1.540,-1.446,47.607,-257.263,258.179
0.427,-1.396,-1.384,44.189,-220.459,231.995
0.491,-1.124,-1.286,34.119,-170.898,215.637
0.624,-0.842,-1.178,23.865,-118.530,213.196
0.877,-0.500,-1.120,18.555,-78.491,219.482
1.160,-0.191,-1.083,24.780,-58.594,225.525
1.420,-0.049,-0.955,48.950,-62.500,236.511
1.503,0.014,-0.714,80.994,-85.876,254.333
1.609,-0.079,-0.583,112.793,-108.765,270.874
1.722,-0.293,-0.504,142.273,-156.250,279.358
1.651,-0.447,-0.374,160.583,-225.647,278.015
1.427,-0.448,-0.341,158.997,-287.292,269.104
1.134,-0.340,-0.507,144.409,-330.872,253.235
0.845,-0.172,-0.692,125.305,-361.633,237.183
0.522,0.074,-0.868,102.417,-375.061,227.478
0.247,0.362,-0.968,84.839,-356.262,225.830
0.091,0.606,-0.967,80.078,-304.626,227.661
0.124,0.739,-0.859,85.754,-236.877,231.689
0.162,0.749,-0.638,95.947,-174.927,240.295
0.223,0.685,-0.333,107.178,-129.456,246.094
0.291,0.637,-0.070,113.586,-103.821,243.896
0.365,0.669,0.059,112.183,-97.656,232.727
0.432,0.746,0.086,109.131,-117.188,216.370
0.436,0.774,0.104,107.849,-158.508,201.355
0.246,0.826,0.061,102.966,-196.716,196.594
-0.105,0.884,-0.081,86.609,-211.304,201.843
-0.492,0.979,-0.245,68.481,-201.599,203.918
-0.808,1.086,-0.374,56.763,-170.776,193.665
-0.999,1.198,-0.424,50.598,-125.610,175.354
-1.088,1.324,-0.376,46.143,-68.665,157.471
-1.022,1.364,-0.318,41.199,-7.324,143.066
-0.906,1.306,-0.199,39.001,46.997,133.423
-0.762,1.232,-0.088,38.086,85.144,125.488
-0.565,1.153,0.052,36.804,103.638,116.028
-0.421,1.096,0.132,33.875,104.431,105.408
-0.336,1.049,0.153,29.114,90.088,93.994
-0.342,1.008,0.131,25.513,64.819,82.703
-0.439,1.020,0.112,22.888,37.109,71.655
-0.557,1.018,0.095,19.897,16.602,62.256
-0.657,0.991,0.034,16.418,4.944,53.772
-0.729,0.941,-0.003,13.672,2.136,41.992
-0.766,0.889,0.012,11.108,6.470,27.649
-0.784,0.852,0.010,4.089,17.700,13.733
-0.784,0.829,-0.021,-7.446,36.133,1.282
-0.721,0.825,-0.057,-20.142,58.044,-10.681
-0.606,0.845,-0.109,-32.227,79.468,-22.949
-0.436,0.903,-0.143,-42.419,96.985,-32.227
-0.268,0.963,-0.151,-48.950,109.192,-37.598
-0.114,1.024,-0.185,-51.758,117.188,-39.673
0.051,1.083,-0.203,-47.974,115.845,-40.344
0.204,1.114,-0.144,-37.415,103.638,-40.833
0.328,1.134,-0.104,-25.330,86.914,-38.513
0.414,1.132,-0.066,-14.099,67.444,-32.288
0.426,1.141,-0.010,-3.235,46.082,-23.682
0.405,1.150,0.033,6.470,28.687,-14.954
0.361,1.128,0.087,15.259,14.832,-7.202
0.301,1.074,0.159,22.400,3.479,-0.732
0.233,1.026,0.235,24.902,-2.258,4.211
0.156,0.996,0.291,22.888,-0.854,5.127
0.116,0.972,0.312,18.921,2.808,2.808
0.040,0.954,0.319,13.489,5.066,-1.099
-0.034,0.953,0.341,7.385,9.399,-5.981
-0.070,0.969,0.339,-0.244,17.212,-12.817
-0.121,1.000,0.307,-9.094,24.353,-21.240
-0.163,1.024,0.284,-16.968,28.503,-30.640
-0.195,1.085,0.283,-24.475,31.128,-39.917
-0.262,1.193,0.246,-34.302,34.180,-48.828
-0.419,1.244,0.202,-44.128,36.255,-55.115
-0.622,1.242,0.169,-56.091,45.227,-57.312
-0.715,1.256,0.131,-73.730,72.083,-58.533
-0.711,1.311,0.060,-96.924,107.056,-62.134
-0.646,1.347,-0.058,-119.141,131.531,-70.007
-0.563,1.337,-0.166,-134.949,137.451,-81.299
-0.526,1.367,-0.237,-145.203,131.592,-95.703
-0.508,1.390,-0.307,-151.611,122.070,-112.000
-0.492,1.394,-0.368,-155.090,109.070,-126.770
-0.484,1.355,-0.437,-155.823,94.116,-138.428
-0.459,1.290,-0.505,-155.823,79.651,-149.841
-0.387,1.197,-0.590,-155.945,68.481,-161.743
-0.241,1.091,-0.691,-155.457,62.866,-171.753
-0.053,1.039,-0.788,-156.372,61.951,-175.049
0.106,1.065,-0.904,-159.607,62.073,-170.044
0.223,1.093,-1.036,-157.715,58.960,-161.316
0.304,1.111,-1.127,-144.714,49.011,-153.442
0.330,1.136,-1.170,-121.216,31.067,-147.400
0.346,1.128,-1.139,-89.233,8.667,-141.418
0.394,0.988,-1.005,-52.612,-14.343,-134.766
0.444,0.799,-0.890,-18.982,-37.292,-128.723
0.439,0.543,-0.760,11.108,-54.810,-126.221
0.305,0.320,-0.649,37.598,-68.420,-128.479
0.160,0.111,-0.559,55.786,-78.064,-139.221
0.019,-0.059,-0.499,65.674,-75.867,-159.363
-0.058,-0.184,-0.482,69.092,-57.556,-181.580
0.032,-0.329,-0.517,68.481,-22.766,-205.261
0.162,-0.488,-0.616,68.237,21.667,-223.633
0.316,-0.661,-0.604,66.345,75.012,-231.445
0.643,-0.885,-0.589,66.589,130.066,-230.774
1.028,-1.024,-0.433,64.270,179.871,-224.243

1.431,-1.463,-0.215,47.119,238.953,-205.750
1.540,-1.702,-0.126,40.466,249.756,-219.788
1.551,-1.833,0.015,36.560,253.601,-260.010
1.505,-1.757,0.071,26.428,258.484,-300.049
1.507,-1.566,-0.009,1.465,276.245,-322.021
1.417,-1.301,-0.276,-32.532,309.631,-323.547
1.875,-1.011,-0.263,-66.162,371.826,-314.392
1.996,-0.664,-0.466,-96.558,405.823,-294.250
2.618,-0.076,-0.378,-115.295,426.697,-271.301
3.154,0.315,-0.488,-122.192,415.344,-239.990
3.250,0.512,-0.477,-102.112,369.812,-180.481
3.009,0.592,-0.185,-69.397,307.983,-94.543
2.677,0.574,0.012,-51.392,243.042,-5.249
2.342,0.384,0.012,-35.278,160.767,76.233
2.022,0.002,-0.001,-5.005,60.425,142.517
1.646,-0.446,-0.019,30.273,-46.143,183.167
1.214,-0.818,-0.150,53.650,-154.236,195.679
0.714,-1.114,-0.460,57.678,-253.845,192.993
0.217,-1.298,-0.819,42.419,-317.017,182.556
-0.116,-1.248,-1.142,13.123,-318.726,169.556
-0.177,-1.036,-1.318,-13.855,-267.700,157.471
0.006,-0.814,-1.330,-27.222,-187.988,151.672
0.398,-0.632,-1.305,-26.611,-114.136,158.081
0.928,-0.445,-1.186,-16.907,-63.965,176.514
1.219,-0.248,-1.096,1.404,-56.152,203.674
1.419,-0.176,-1.033,30.273,-81.482,231.567
1.430,-0.202,-0.961,65.002,-135.376,250.793
1.394,-0.272,-0.868,98.816,-196.655,259.705
1.337,-0.354,-0.866,126.648,-253.967,259.705
1.225,-0.451,-0.861,149.597,-308.838,253.845
1.119,-0.502,-0.838,166.138,-357.605,242.310
1.035,-0.555,-0.817,175.293,-395.203,226.257
0.948,-0.568,-0.787,175.110,-419.678,210.632
0.876,-0.479,-0.743,164.307,-429.443,197.266
0.753,-0.217,-0.744,142.517,-427.673,186.951
0.650,0.020,-0.744,118.469,-411.804,182.495
0.591,0.262,-0.814,99.304,-380.554,186.157
0.461,0.532,-0.876,84.717,-351.562,195.679
0.284,0.756,-0.881,83.496,-326.416,207.153
0.143,0.867,-0.775,98.816,-302.307,217.224
0.058,0.835,-0.590,122.925,-281.311,220.459
0.048,0.735,-0.377,146.667,-268.494,213.989
0.091,0.692,-0.160,160.950,-266.724,196.594
0.143,0.719,0.028,158.875,-272.095,176.636
0.204,0.755,0.073,147.339,-273.315,160.828
0.212,0.796,0.048,136.597,-273.315,149.475
0.053,0.839,0.016,129.333,-281.128,138.489
-0.211,0.897,0.001,119.141,-286.926,125.671
-0.468,0.956,-0.056,105.347,-278.381,114.380
-0.686,1.028,-0.161,90.210,-254.700,103.455
-0.857,1.136,-0.255,75.562,-220.276,92.590
-0.944,1.259,-0.285,65.796,-174.927,83.679
-0.936,1.337,-0.274,62.561,-120.605,77.759
-0.850,1.331,-0.212,66.833,-64.575,74.036
-0.691,1.222,-0.065,74.768,-16.418,68.848
-0.537,1.112,0.074,80.994,16.846,59.753
-0.342,1.044,0.227,84.595,37.537,45.227
-0.138,1.001,0.354,87.830,43.335,27.344
0.039,0.947,0.435,93.201,34.241,10.071
0.187,0.877,0.505,98.022,14.404,-5.310
0.268,0.866,0.570,98.267,-7.263,-16.174
0.288,0.913,0.628,94.971,-21.606,-18.311
0.249,0.941,0.662,90.881,-24.658,-12.634
0.177,0.907,0.714,89.661,-20.264,-2.869
0.116,0.831,0.779,91.309,-13.916,5.676
0.065,0.759,0.858,90.942,-5.615,10.376
0.034,0.696,0.929,86.121,6.836,12.634
0.026,0.645,0.976,76.660,24.170,14.221
0.064,0.632,0.995,64.636,43.823,15.503
0.157,0.666,0.995,53.589,61.096,15.320
0.330,0.720,0.996,48.096,70.068,15.137
0.385,0.762,0.963,47.668,62.866,15.076
0.502,0.762,0.980,55.969,41.931,17.944
0.602,0.723,0.994,66.040,15.320,22.522
0.552,0.759,0.964,72.937,-15.198,26.978
0.419,0.743,0.893,77.637,-47.058,39.490
0.253,0.701,0.790,80.688,-65.918,52.429
0.050,0.599,0.741,82.703,-73.547,61.890
-0.103,0.513,0.744,81.909,-68.970,65.369
-0.219,0.485,0.713,76.965,-59.326,63.965
-0.257,0.505,0.664,70.801,-40.466,59.448
-0.218,0.544,0.624,66.223,-16.907,54.810
-0.162,0.597,0.615,64.026,3.174,52.979
-0.114,0.627,0.616,64.514,20.264,53.833
-0.061,0.634,0.650,67.932,34.973,57.129
0.005,0.633,0.636,72.388,46.692,60.852
0.075,0.662,0.576,79.529,50.720,62.317
0.110,0.706,0.556,93.201,42.664,61.401
0.116,0.722,0.533,111.389,27.222,60.364
0.043,0.705,0.513,129.822,7.141,60.913
-0.012,0.606,0.517,147.339,-12.573,64.209
-0.107,0.558,0.516,161.926,-25.635,67.383
-0.168,0.521,0.473,172.119,-22.949,69.397
-0.199,0.503,0.434,180.298,-8.606,70.984
-0.186,0.447,0.459,189.819,8.301,73.303
-0.193,0.305,0.538,199.219,28.687,76.111
-0.189,0.147,0.722,203.491,49.133,76.111
-0.204,-0.003,0.909,198.669,62.622,74.402
-0.180,-0.095,1.008,184.753,71.106,71.472
-0.152,-0.139,0.995,165.771,76.294,63.110
-0.116,-0.148,0.920,149.780,77.393,49.011
-0.089,-0.138,0.855,141.296,75.806,32.837
-0.029,-0.091,0.796,139.099,76.416,17.944
0.057,-0.075,0.823,144.226,80.322,7.141
0.110,-0.082,0.876,149.231,80.322,2.747
0.168,-0.145,0.961,150.635,69.458,4.761
0.228,-0.224,1.029,149.780,57.190,11.536
0.291,-0.280,1.079,143.494,57.800,20.569
0.344,-0.321,1.164,132.080,64.819,31.738
0.306,-0.323,1.205,115.540,67.139,43.884
0.269,-0.392,1.263,97.717,66.650,52.795
0.221,-0.380,1.236,81.238,56.396,56.580
0.225,-0.392,1.197,72.632,44.678,54.749
0.203,-0.450,1.190,49.988,28.870,59.509
0.180,-0.441,1.253,17.578,19.165,70.007
0.176,-0.438,1.285,-5.371,15.808,66.345
0.191,-0.383,1.265,-21.179,14.221,53.284
0.242,-0.312,1.204,-24.048,18.799,36.621
0.327,-0.232,1.158,-18.005,27.893,17.639

0.508,-0.058,1.621,59.082,18.127,-53.345
0.295,-0.082,1.294,40.833,-32.043,0.366
0.179,-0.092,0.958,14.282,-41.443,15.564
0.121,-0.110,0.862,-1.709,-34.485,1.282
0.139,-0.023,0.750,-17.029,-23.376,-2.625
0.320,-0.014,0.527,-13.855,-12.024,6.775
0.301,0.119,0.430,19.287,-14.771,20.386
0.318,0.226,0.349,58.655,-5.920,8.850
0.516,0.172,0.618,59.326,45.715,-11.719
0.480,0.076,1.073,27.649,68.298,-17.700
0.402,-0.018,1.177,-2.625,59.448,-15.808
0.364,-0.012,1.036,-30.762,50.476,-8.545
0.347,0.100,0.918,-51.514,37.903,-4.883
0.488,0.209,0.889,-47.974,26.062,-8.789
0.500,0.232,0.923,-32.471,14.221,-11.414
0.464,0.124,0.900,-12.878,1.587,-9.399
0.401,-0.015,0.988,0.793,-7.446,0.671
0.364,-0.119,0.946,4.883,-4.272,12.268
0.320,-0.084,0.794,-2.014,4.272,21.667
0.324,-0.042,0.698,-4.517,7.690,16.235
0.335,-0.025,0.753,-5.493,21.790,8.057
0.344,-0.030,0.812,-5.615,31.128,1.587
0.369,0.023,0.861,-3.479,33.875,-5.798
0.403,0.089,0.907,-2.319,37.842,-10.254
0.376,0.138,0.957,-1.038,31.128,-13.367
0.436,0.016,0.939,-0.488,18.188,-23.865
0.454,-0.015,0.945,-8.423,4.517,-23.865
0.473,0.060,0.978,-23.926,-4.211,-15.442
0.499,0.088,0.969,-35.828,-20.813,-3.235
0.497,0.078,0.957,-45.654,-52.368,18.982
0.408,0.074,0.877,-50.293,-94.055,48.584
0.267,0.084,0.742,-46.448,-127.869,79.956
0.275,0.048,0.578,-20.691,-116.638,81.665
0.323,0.097,0.658,10.986,-59.937,44.922
0.398,0.161,0.780,30.029,-6.775,-4.089
0.364,0.241,0.824,27.161,5.737,-26.184
0.302,0.206,0.881,29.846,4.761,-25.635
0.258,0.112,0.960,43.091,4.822,-27.161
0.212,0.093,1.015,47.180,6.287,-29.053
0.200,0.054,1.071,38.940,7.629,-33.630
0.268,0.018,1.052,27.344,7.996,-44.128
0.338,0.030,1.041,25.635,8.362,-42.908
0.306,0.073,1.019,28.564,-0.488,-31.067
0.309,-0.005,1.015,32.104,-16.724,-10.559
0.320,0.039,1.004,27.649,-38.330,24.170
0.248,0.030,0.927,24.231,-48.645,48.828
0.306,0.003,0.834,38.452,-28.564,53.955
0.356,-0.076,0.821,52.185,-4.944,45.410
0.401,-0.124,0.797,52.673,5.493,33.386
0.320,-0.012,0.767,44.189,11.536,27.344
0.412,0.034,0.896,38.086,21.851,20.874
0.453,0.114,0.986,31.189,19.409,10.742
0.392,0.173,0.996,21.423,6.287,2.563
0.285,0.095,1.000,17.883,-0.122,-3.967
0.215,0.037,0.986,15.320,2.869,-11.963
0.134,0.088,0.909,11.780,6.409,-19.165
0.254,0.055,0.929,13.428,8.423,-22.156
0.211,-0.017,0.868,19.104,0.977,-27.588
0.262,-0.089,0.850,21.973,-1.526,-32.776
0.342,-0.117,0.878,22.888,-4.700,-24.231
0.347,-0.083,0.863,22.156,-17.761,-9.827
0.294,-0.077,0.835,24.902,-29.541,-2.747
0.243,-0.197,0.784,27.771,-31.738,-6.042
0.279,-0.294,0.683,12.695,-37.292,-13.062
0.228,-0.208,0.690,-19.775,-46.631,-11.353
0.258,-0.169,0.710,-44.067,-60.547,-3.967
0.336,-0.202,0.604,-53.345,-88.013,4.944
0.268,-0.286,0.716,-62.500,-132.568,20.325
0.253,-0.045,0.894,-90.149,-165.222,38.452
0.220,0.920,1.834,-110.535,-199.829,43.762
-0.484,0.320,1.231,-46.631,-250.916,25.574
-0.038,0.180,1.173,22.278,-101.685,35.217
0.137,0.125,0.964,35.583,-32.410,37.476
0.127,-0.005,1.008,17.639,-53.955,22.949
0.070,0.095,0.958,10.925,-61.157,22.827
0.046,0.035,0.971,17.883,-48.950,25.085
0.064,-0.046,1.056,22.034,-38.757,22.461
0.068,-0.032,1.074,18.616,-29.663,17.883
-0.028,0.012,1.038,11.230,-24.597,15.320
0.041,-0.009,1.017,12.756,-5.798,17.334
0.062,0.025,1.043,11.292,2.075,12.817
0.056,0.007,1.015,5.127,2.808,10.315
0.089,-0.004,0.979,2.014,4.822,11.963
0.026,0.027,0.948,-0.244,5.676,10.559
0.032,-0.025,0.923,0.977,4.883,7.507
0.076,-0.017,0.935,2.930,1.343,2.319
0.054,0.043,0.939,5.615,-0.854,-1.343
0.109,0.009,0.978,8.728,0.916,-1.892
0.059,0.022,0.979,7.996,0.061,-3.540
0.005,-0.015,0.969,7.202,0.854,-7.812
-0.037,-0.001,0.974,7.629,1.648,-10.498
-0.006,0.074,0.972,6.836,1.282,-14.587
0.042,0.026,0.944,6.775,-1.343,-20.447
0.094,0.008,0.961,4.944,-9.460,-23.315
0.030,0.034,0.901,1.343,-20.142,-21.179
0.074,-0.002,0.881,3.235,-27.466,-16.235
0.102,-0.001,0.908,7.263,-37.415,-13.489
0.092,0.042,0.774,10.925,-44.739,-7.568
0.048,0.045,0.750,21.240,-51.636,-0.671
-0.035,0.057,0.862,39.429,-54.443,-2.197
0.031,-0.382,2.294,48.523,-57.312,-3.601
-0.260,0.014,0.997,-13.062,-67.017,-1.099
0.006,-0.062,0.993,12.756,22.278,-3.601
0.014,-0.028,1.026,19.165,36.255,-0.854
0.031,-0.017,0.961,-0.061,-2.563,-0.732
0.029,-0.017,0.957,4.211,5.798,6.409
0.043,-0.013,0.982,2.930,2.930,8.179
-0.003,0.001,0.967,2.319,1.648,9.460
0.029,-0.004,0.965,3.540,3.479,9.338
-0.026,-0.010,0.961,4.639,6.165,3.479
-0.042,-0.028,0.979,2.930,3.174,-0.671
-0.045,-0.021,0.990,2.441,2.380,-0.183
-0.006,-0.003,0.980,2.563,2.014,3.662
-0.007,0.015,0.975,3.235,2.747,4.944
-0.011,-0.012,0.968,2.808,2.747,6.653
0.001,-0.019,0.980,2.686,3.052,10.071
0.034,-0.012,0.973,3.174,3.052,11.597
0.002,-0.002,0.975,3.052,2.747,6.714
0.027,-0.005,0.972,2.747,2.686,6.165
