aX,aY,aZ,gX,gY,gZ
0.007,-0.033,0.934,-2.808,-10.742,-22.278
-0.007,-0.015,0.963,1.465,22.888,19.836
-0.007,-0.015,0.962,2.686,12.512,13.733
-0.007,-0.014,0.961,2.686,3.967,3.723
-0.008,-0.015,0.960,2.686,2.869,2.625
-0.007,-0.015,0.960,2.747,2.563,2.380
-0.008,-0.013,0.959,2.686,2.625,2.441
-0.007,-0.012,0.959,2.747,2.747,2.380
-0.010,-0.010,0.958,2.869,2.869,2.197
-0.014,-0.005,0.958,2.930,2.686,1.953
-0.032,0.005,0.955,2.869,2.563,1.038
-0.027,-0.000,0.953,2.686,2.197,-1.221
0.011,-0.014,0.960,2.258,1.648,-2.869
0.012,-0.020,0.957,2.747,2.808,-1.038
-0.000,-0.014,0.955,2.625,2.747,1.282
-0.014,-0.004,0.958,2.686,2.808,2.502
-0.014,-0.007,0.957,2.930,2.930,2.686
-0.014,-0.007,0.957,2.869,2.869,3.052
-0.004,-0.008,0.958,2.686,2.747,4.150
-0.002,-0.021,0.958,2.686,2.747,3.906
-0.007,-0.016,0.957,2.563,2.441,2.808
-0.010,-0.013,0.956,2.808,2.563,2.502
-0.010,-0.013,0.957,2.625,2.563,2.441
-0.010,-0.012,0.957,2.686,2.625,2.441
-0.009,-0.013,0.957,2.869,2.869,2.563
-0.009,-0.012,0.958,2.747,2.869,2.502
-0.009,-0.010,0.956,2.808,2.747,2.747
-0.012,-0.008,0.956,2.625,2.686,2.747
-0.011,-0.011,0.957,2.625,2.563,3.113
-0.003,-0.018,0.957,2.747,2.625,3.540
-0.004,-0.015,0.957,2.747,2.563,3.296
-0.006,-0.013,0.957,2.747,2.563,2.869
-0.005,-0.014,0.957,2.747,2.563,2.869
-0.005,-0.013,0.957,2.563,2.686,2.625
-0.006,-0.014,0.958,2.625,2.502,2.563
-0.006,-0.014,0.958,2.625,2.563,2.563
-0.006,-0.014,0.958,2.747,2.686,2.686
-0.007,-0.014,0.958,2.747,2.686,2.747
-0.008,-0.013,0.959,2.747,2.686,2.930
-0.008,-0.012,0.958,2.686,2.686,3.174
-0.007,-0.013,0.958,2.869,2.686,3.601
-0.004,-0.013,0.958,2.747,2.686,3.723
-0.003,-0.015,0.958,2.808,2.625,3.479
-0.008,-0.011,0.959,2.747,2.380,2.991
-0.007,-0.012,0.958,2.747,2.563,2.563
-0.008,-0.010,0.958,2.625,2.502,2.380
-0.008,-0.010,0.960,2.686,2.747,2.380
-0.007,-0.012,0.959,2.625,2.625,2.319
-0.008,-0.012,0.958,2.625,2.686,2.380
-0.008,-0.012,0.959,2.686,2.563,2.319
-0.007,-0.013,0.958,2.686,2.625,2.441
-0.007,-0.012,0.959,2.686,2.625,2.441
-0.008,-0.012,0.960,2.747,2.625,2.258
-0.008,-0.012,0.959,2.625,2.686,2.319
-0.007,-0.014,0.960,2.747,2.625,2.319
-0.007,-0.012,0.959,2.686,2.686,2.197
-0.008,-0.012,0.958,2.563,2.686,2.258
-0.007,-0.012,0.959,2.625,2.747,2.197
-0.009,-0.010,0.960,2.625,2.686,2.441
-0.009,-0.011,0.960,2.625,2.502,2.319
-0.009,-0.010,0.960,2.686,2.625,2.441
-0.009,-0.010,0.960,2.625,2.563,2.686
-0.008,-0.010,0.960,2.563,2.258,2.808
-0.007,-0.011,0.960,2.319,2.136,3.052
-0.008,-0.012,0.959,2.502,2.441,2.869
-0.008,-0.014,0.960,2.808,2.502,2.563
-0.009,-0.012,0.961,2.686,2.625,2.380
-0.006,-0.011,0.961,2.625,2.625,2.319
-0.005,-0.013,0.960,2.502,2.441,2.380
-0.008,-0.012,0.960,2.502,2.563,2.258
-0.005,-0.013,0.961,2.808,2.686,2.441
-0.007,-0.012,0.961,2.747,2.808,2.380
-0.006,-0.011,0.962,2.686,2.686,2.258
-0.005,-0.012,0.962,2.747,2.686,2.441
-0.005,-0.012,0.962,2.869,2.686,2.686
-0.005,-0.011,0.962,2.747,2.563,2.686
-0.005,-0.013,0.961,2.563,2.502,2.625
-0.006,-0.012,0.961,2.563,2.380,2.625
-0.007,-0.012,0.961,2.625,2.563,2.625
-0.007,-0.012,0.961,2.563,2.625,2.502
-0.008,-0.012,0.962,2.625,2.563,2.563
-0.008,-0.012,0.961,2.563,2.625,2.563
-0.008,-0.012,0.963,2.747,2.563,2.319
-0.009,-0.013,0.962,2.808,2.686,2.319
-0.009,-0.013,0.963,2.747,2.563,2.502
-0.008,-0.014,0.962,2.747,2.380,2.380
-0.009,-0.013,0.962,2.502,2.441,2.380
-0.008,-0.013,0.963,2.563,2.563,2.258
-0.010,-0.014,0.963,2.563,2.563,2.380
-0.008,-0.012,0.962,2.625,2.747,2.441
-0.008,-0.011,0.963,2.747,2.747,2.319
-0.010,-0.009,0.962,2.869,2.502,2.380
-0.011,-0.007,0.964,2.686,2.563,2.686
-0.012,-0.007,0.963,2.625,2.625,3.357
-0.006,-0.007,0.964,2.380,2.258,4.272
-0.005,-0.011,0.963,2.686,2.930,3.967
-0.006,-0.011,0.963,2.625,2.808,2.625
-0.010,-0.004,0.964,2.686,2.808,1.709
-0.007,-0.007,0.963,2.686,2.869,1.343
-0.006,-0.010,0.962,2.747,2.747,1.038
0.001,-0.013,0.963,2.686,2.686,0.916
-0.001,-0.015,0.965,2.747,2.502,1.404
-0.006,-0.014,0.964,2.563,2.502,2.197
-0.008,-0.018,0.964,2.563,2.686,2.563
-0.008,-0.016,0.964,2.502,2.563,2.441
-0.009,-0.013,0.963,2.686,2.380,2.319
-0.009,-0.013,0.963,2.563,2.686,2.319
-0.009,-0.012,0.964,2.625,2.563,2.380
-0.009,-0.013,0.964,2.747,2.563,2.441
-0.008,-0.011,0.965,2.686,2.625,2.380
-0.009,-0.011,0.965,2.625,2.625,2.380
-0.010,-0.010,0.964,2.686,2.747,2.319
-0.009,-0.010,0.964,2.563,2.563,2.258
-0.009,-0.010,0.964,2.563,2.563,2.136
-0.007,-0.011,0.965,2.563,2.625,2.075
-0.007,-0.012,0.965,2.625,2.625,1.953
-0.006,-0.011,0.965,2.686,2.625,1.953
-0.005,-0.013,0.964,2.808,2.747,1.892
-0.004,-0.013,0.965,2.625,2.686,2.014

-1.338,0.546,0.469,-10.864,-370.544,93.689
-1.327,0.511,0.434,-7.141,-402.832,105.286
-1.217,0.536,0.437,5.737,-427.795,108.521
-1.140,0.457,0.500,24.719,-447.876,104.126
-1.047,0.419,0.512,44.617,-457.153,107.849
-0.984,0.457,0.477,62.378,-442.749,117.004
-1.000,0.530,0.458,70.068,-410.278,118.591
-1.074,0.550,0.468,68.726,-371.948,100.525
-1.178,0.604,0.435,60.791,-335.876,65.063
-1.238,0.600,0.361,48.706,-303.040,27.283
-1.334,0.528,0.227,40.710,-276.001,-2.319
-1.412,0.527,0.112,32.654,-263.000,-25.330
-1.466,0.488,0.025,27.161,-265.381,-35.278
-1.417,0.398,-0.044,26.062,-273.499,-30.762
-1.300,0.382,-0.050,28.870,-280.701,-20.813
-1.145,0.416,-0.042,38.086,-290.771,-12.024
-1.033,0.399,-0.042,51.575,-301.697,-5.554
-0.932,0.365,-0.056,61.584,-301.819,-3.235
-0.866,0.370,-0.115,67.078,-288.513,-5.798
-0.782,0.341,-0.164,73.425,-263.367,-17.883
-0.745,0.371,-0.175,77.942,-237.549,-40.955
-0.712,0.438,-0.198,79.407,-218.933,-63.354
-0.694,0.443,-0.205,82.214,-205.078,-75.745
-0.708,0.477,-0.195,83.435,-196.716,-79.224
-0.713,0.522,-0.194,80.444,-195.068,-76.904
-0.706,0.529,-0.201,76.782,-198.364,-70.190
-0.702,0.539,-0.217,74.829,-202.759,-66.406
-0.638,0.595,-0.182,70.435,-202.637,-71.289
-0.600,0.632,-0.113,64.575,-195.129,-78.796
-0.666,0.677,-0.120,54.932,-183.411,-88.074
-0.711,0.725,-0.181,40.649,-169.861,-103.943
-0.749,0.710,-0.244,25.452,-159.180,-122.009
-0.812,0.647,-0.262,13.184,-155.640,-137.146
-0.884,0.646,-0.325,4.333,-158.447,-152.466
-0.870,0.632,-0.328,1.709,-163.269,-169.739
-0.781,0.616,-0.275,6.348,-165.771,-184.448
-0.758,0.651,-0.265,12.329,-167.847,-193.054
-0.682,0.669,-0.274,16.113,-167.114,-199.036
-0.509,0.642,-0.246,14.526,-161.255,-200.195
-0.431,0.682,-0.272,5.920,-152.710,-195.496
-0.374,0.567,-0.291,-3.296,-140.381,-187.683
-0.432,0.853,-0.314,-16.479,-130.920,-178.772
-0.465,0.767,-0.292,-11.047,-120.850,-179.932
-0.426,0.732,-0.385,-3.479,-113.770,-166.138
-0.360,0.737,-0.445,-6.042,-108.459,-151.855
-0.343,0.725,-0.437,-15.015,-99.182,-147.705
-0.197,0.676,-0.450,-19.226,-92.590,-158.203
-0.134,0.615,-0.435,-12.878,-80.566,-178.589
-0.087,0.642,-0.421,-8.728,-64.697,-196.289
0.006,0.640,-0.434,-8.057,-50.293,-204.529
0.061,0.619,-0.432,-6.348,-40.955,-205.627
0.083,0.577,-0.443,-1.587,-39.246,-204.407
0.088,0.568,-0.372,1.953,-35.706,-202.454
0.173,0.588,-0.301,2.136,-27.588,-202.637
0.257,0.569,-0.268,-1.160,-21.240,-206.360
0.304,0.454,-0.318,-7.141,-18.738,-206.726
0.323,0.296,-0.400,-16.785,-16.418,-202.026
0.420,0.213,-0.437,-22.522,-8.423,-201.599
0.526,0.144,-0.475,-20.691,-1.221,-200.623
0.629,0.091,-0.515,-14.526,6.531,-192.017
0.738,0.074,-0.530,-12.390,15.076,-183.167
0.711,0.066,-0.546,-10.376,23.132,-178.162
0.731,0.036,-0.585,-12.451,31.433,-178.650
0.755,-0.025,-0.625,-18.494,39.368,-176.331
0.800,-0.116,-0.677,-24.780,43.579,-169.312
0.830,-0.228,-0.733,-30.334,45.105,-157.532
0.922,-0.347,-0.724,-33.325,48.523,-138.977
0.980,-0.410,-0.770,-30.762,45.410,-119.629
0.906,-0.433,-0.823,-25.879,36.865,-101.501
0.877,-0.467,-0.888,-21.973,31.311,-84.045
0.844,-0.490,-0.932,-18.066,26.123,-65.857
0.778,-0.465,-1.004,-11.475,18.494,-49.133
0.693,-0.445,-1.052,-2.808,12.146,-34.424
0.635,-0.344,-1.010,6.592,12.085,-21.545
0.609,-0.171,-0.935,14.038,15.686,-10.010
0.576,-0.010,-0.903,14.160,18.127,-1.221
0.527,0.022,-0.922,7.690,18.494,4.883
0.490,0.020,-0.963,2.930,18.677,8.057
0.497,0.027,-1.003,4.883,18.555,8.118
0.490,0.068,-0.972,11.841,17.517,7.874
0.487,0.160,-0.934,18.799,13.184,11.719
0.478,0.225,-0.899,23.071,6.287,22.766
0.481,0.298,-0.865,26.367,0.610,33.569
0.483,0.336,-0.839,30.090,-3.052,39.368
0.502,0.347,-0.816,33.081,-3.296,39.734
0.535,0.377,-0.766,34.668,0.183,34.668
0.548,0.393,-0.704,35.156,3.113,28.870
0.519,0.422,-0.690,30.029,4.517,26.855
0.514,0.406,-0.712,21.057,5.188,28.503
0.556,0.336,-0.747,13.977,5.188,32.776
0.605,0.294,-0.771,11.353,4.883,36.804
0.624,0.250,-0.783,12.573,3.906,38.818
0.653,0.205,-0.798,14.404,2.258,39.856
0.667,0.115,-0.816,17.700,0.000,42.603
0.667,0.029,-0.839,24.658,-2.136,46.082
0.673,-0.037,-0.870,35.278,-2.502,50.720
0.671,-0.096,-0.880,48.950,-1.404,57.251
0.678,-0.164,-0.865,65.369,-0.549,64.514
0.667,-0.181,-0.819,83.069,2.686,72.815
0.674,-0.089,-0.720,97.412,12.085,81.055
0.702,0.088,-0.633,109.314,26.367,86.243
0.699,0.197,-0.515,113.403,41.260,85.938
0.605,0.284,-0.454,107.178,49.255,80.688
0.486,0.359,-0.448,93.262,47.058,80.261
0.395,0.381,-0.470,76.843,39.429,89.478
0.361,0.373,-0.517,65.063,32.349,101.318
0.330,0.322,-0.569,62.805,29.053,108.398
0.312,0.280,-0.573,70.374,33.081,105.164
0.312,0.321,-0.558,86.365,41.382,94.788
0.363,0.316,-0.533,106.079,54.138,85.632
0.460,0.286,-0.462,124.023,74.707,79.651
0.517,0.291,-0.374,136.963,103.027,75.745
0.456,0.311,-0.278,145.874,133.362,69.702
0.237,0.444,-0.279,159.424,154.480,54.321
0.053,0.601,-0.275,171.997,160.889,37.781
-0.036,0.660,-0.228,172.729,153.748,33.997
-0.091,0.729,-0.188,165.710,137.817,47.607
-0.115,0.783,-0.176,154.175,117.554,69.092
-0.062,0.788,-0.154,140.991,100.281,91.064

-0.959,1.206,0.832,179.687,149.292,81.848
-0.992,1.301,0.851,165.649,130.859,97.717
-0.852,1.291,0.862,155.029,125.305,106.140
-0.642,1.231,0.870,154.724,128.540,95.093
-0.379,1.072,0.908,163.513,139.832,71.228
-0.240,0.914,0.923,175.049,151.855,48.462
-0.183,0.885,0.878,184.937,160.522,30.334
-0.186,0.728,0.909,191.406,167.358,23.193
-0.301,0.667,0.888,189.880,158.691,28.198
-0.516,0.668,0.725,180.237,125.671,44.617
-0.658,0.501,0.571,171.509,79.285,66.772
-0.796,0.361,0.401,159.485,23.071,99.854
-0.919,0.375,0.381,149.109,-30.640,136.108
-1.226,0.646,0.552,148.987,-64.575,173.279
-1.029,0.911,0.607,154.236,-50.171,200.500
-0.600,0.903,0.726,164.917,-4.700,186.462
-0.274,0.798,0.852,182.434,39.673,136.719
-0.151,0.714,0.927,191.162,70.557,82.336
-0.216,0.514,0.916,188.965,84.900,42.297
-0.467,0.302,0.896,182.373,87.524,27.588
-0.683,0.116,0.898,177.246,79.651,34.790
-0.794,0.074,0.707,176.392,60.974,53.467
-0.791,0.081,0.749,183.594,47.058,78.674
-0.690,0.044,0.783,200.256,20.630,103.760
-0.734,-0.022,0.902,221.497,-11.780,134.033
-0.921,0.302,1.164,239.075,-29.907,166.016
-0.776,0.767,1.468,247.375,-14.343,187.866
-0.453,0.886,1.657,246.216,11.292,184.570
-0.338,0.939,1.811,218.384,39.856,165.527
-0.356,0.885,1.801,175.415,75.928,136.230
-0.257,0.721,1.656,144.165,121.643,103.088
-0.129,0.457,1.506,132.935,160.217,72.510
-0.157,0.132,1.406,132.263,184.448,52.673
-0.292,-0.014,1.213,136.963,200.623,46.082
-0.464,-0.145,1.020,149.048,207.825,45.227
-0.656,-0.177,0.971,162.231,207.092,44.739
-0.805,-0.062,0.935,170.166,190.674,49.866
-0.895,-0.057,0.965,176.697,163.269,65.918
-0.976,0.009,1.002,179.077,130.188,85.083
-0.956,-0.021,1.025,174.500,103.149,109.070
-0.844,0.109,1.120,165.771,92.407,135.986
-0.670,0.315,1.205,155.884,94.482,155.029
-0.482,0.454,1.304,139.893,110.352,152.710
-0.361,0.443,1.343,120.056,130.249,134.827
-0.270,0.299,1.374,104.248,157.715,113.098
-0.194,0.133,1.210,102.356,188.660,90.698
-0.284,-0.031,1.067,120.056,210.999,69.641
-0.468,-0.118,0.970,134.949,220.947,54.199
-0.527,-0.109,0.844,132.385,220.642,58.167
-0.605,-0.121,0.748,132.629,206.055,59.326
-0.712,-0.093,0.729,131.348,175.964,60.791
-0.873,0.100,0.764,112.793,128.357,65.369
-0.998,0.297,0.867,83.557,75.134,73.120
-0.877,0.411,0.992,55.054,28.503,76.965
-0.705,0.442,1.097,20.203,-5.005,77.637
-0.493,0.392,1.127,-11.841,-24.902,73.181
-0.266,0.240,1.114,-38.086,-33.875,61.707
-0.063,0.048,1.064,-53.894,-31.189,47.241
-0.005,-0.097,0.875,-55.725,-17.517,31.006
0.114,-0.351,0.954,-43.701,14.465,14.832
0.194,-0.481,0.828,-27.893,40.710,-3.845
0.144,-0.490,0.780,-12.695,62.500,-19.287
0.091,-0.369,0.691,2.930,73.303,-32.898
0.049,-0.355,0.752,20.752,75.745,-27.344
-0.073,-0.311,0.773,30.701,57.983,-8.728
-0.179,-0.257,0.807,27.893,35.889,5.066
-0.200,-0.199,0.818,17.700,18.311,10.315
-0.132,-0.168,0.889,7.935,5.493,5.493
-0.071,-0.137,0.976,-0.427,-5.066,-1.709
-0.074,-0.159,0.990,-8.667,-16.357,-7.080
-0.109,-0.192,0.996,-16.724,-27.222,-11.230
-0.108,-0.232,0.996,-25.879,-35.278,-10.010
-0.018,-0.328,0.975,-34.607,-38.452,-5.249
0.029,-0.415,0.952,-37.048,-39.246,-1.709
0.021,-0.393,0.962,-27.588,-38.513,-9.338
-0.073,-0.464,1.008,-10.986,-33.813,-17.456
-0.139,-0.441,1.069,2.869,-25.574,-22.217
-0.275,-0.334,1.092,10.864,-26.611,-22.156
-0.445,-0.235,1.120,13.550,-36.621,-21.912
-0.560,-0.189,1.163,10.925,-48.706,-20.874
-0.591,-0.057,1.218,1.709,-64.331,-20.081
-0.621,0.090,1.338,-13.916,-87.585,-20.996
-0.594,0.223,1.467,-41.077,-111.206,-19.287
-0.545,0.282,1.528,-77.209,-135.193,-20.508
-0.467,0.182,1.492,-112.427,-158.752,-31.860
-0.381,0.001,1.423,-141.479,-180.298,-46.143
-0.262,-0.311,1.319,-157.227,-196.167,-57.556
-0.212,-0.598,1.230,-156.921,-198.303,-66.040
-0.140,-0.607,1.125,-145.813,-190.491,-72.815
-0.216,-0.495,1.085,-131.348,-187.073,-72.510
-0.459,-0.368,1.103,-121.399,-199.707,-63.721
-0.731,-0.224,1.096,-120.728,-223.022,-51.147
-0.941,-0.091,1.112,-126.892,-251.953,-38.330
-1.120,0.070,1.101,-134.644,-284.424,-33.264
-1.243,0.208,1.133,-139.587,-314.819,-37.781
-1.290,0.333,1.163,-138.855,-341.614,-53.955
-1.248,0.413,1.234,-135.681,-361.816,-78.064
-1.101,0.378,1.316,-133.545,-373.108,-105.286
-0.923,0.304,1.362,-130.737,-375.977,-127.930
-0.839,0.249,1.310,-128.052,-370.789,-142.639
-0.743,0.141,1.388,-124.329,-353.516,-151.550
-0.651,0.105,1.277,-121.765,-342.834,-161.438
-0.696,0.075,1.125,-120.239,-338.623,-169.006
-0.809,0.066,0.927,-122.375,-330.322,-169.373
-0.829,0.123,0.695,-121.826,-313.354,-162.415
-0.811,0.203,0.475,-110.474,-292.175,-151.672
-0.830,0.313,0.264,-86.609,-273.254,-144.226
-0.891,0.419,0.111,-54.626,-256.104,-143.250
-0.972,0.587,0.059,-22.583,-238.159,-147.400
-1.055,0.849,0.083,2.014,-220.459,-154.785
-1.050,1.160,0.193,13.062,-204.468,-162.048
-1.048,1.352,0.268,8.850,-195.496,-167.480
-1.098,1.300,0.240,-4.883,-195.251,-174.744
-1.179,1.091,0.153,-20.752,-192.566,-192.993
-1.158,0.990,0.099,-29.785,-189.514,-225.098
-1.175,0.875,0.058,-26.733,-194.763,-258.972
-1.164,0.740,0.123,-21.179,-199.951,-280.884
-1.169,0.648,0.182,-20.020,-200.195,-282.654
-1.163,0.559,0.218,-17.517,-196.533,-270.386

-1.238,1.060,0.640,-15.198,-153.564,-217.468
-1.227,1.285,0.794,-22.888,-141.602,-229.248
-1.303,1.465,1.010,-41.016,-123.901,-243.774
-1.416,1.576,1.164,-69.824,-104.004,-266.479
-1.562,1.544,1.185,-103.943,-87.280,-299.683
-1.683,1.262,1.099,-137.573,-73.059,-339.355
-1.719,1.011,0.998,-167.053,-62.500,-376.404
-1.610,0.799,0.924,-181.458,-55.420,-395.996
-1.477,0.420,0.843,-182.922,-48.340,-389.099
-1.281,0.219,0.651,-181.396,-37.537,-367.615
-1.133,0.101,0.497,-169.312,-30.518,-342.590
-0.953,0.149,0.402,-154.724,-24.841,-310.913
-0.924,0.439,0.355,-139.160,-23.071,-272.461
-0.758,0.551,0.303,-125.305,-21.118,-242.737
-0.541,0.567,0.297,-123.352,-18.066,-233.276
-0.367,0.556,0.230,-130.676,-18.250,-233.704
-0.323,0.547,0.134,-138.123,-17.029,-241.150
-0.185,0.395,0.029,-136.475,-6.775,-250.610
-0.066,0.239,-0.035,-123.840,10.803,-262.817
-0.027,0.083,-0.134,-109.192,29.236,-272.888
-0.083,-0.009,-0.219,-91.309,45.654,-279.236
-0.190,0.078,-0.265,-73.669,55.786,-277.283
-0.222,0.172,-0.289,-61.218,54.321,-262.268
-0.177,0.233,-0.250,-62.195,48.401,-236.694
-0.012,0.184,-0.307,-75.623,47.058,-211.365
0.233,0.126,-0.353,-91.858,54.932,-201.660
0.420,0.052,-0.427,-99.365,63.843,-206.909
0.521,-0.149,-0.495,-98.389,67.993,-214.539
0.526,-0.242,-0.557,-90.881,68.909,-222.290
0.488,-0.330,-0.681,-70.251,69.397,-222.595
0.456,-0.477,-0.753,-50.293,63.416,-218.262
0.512,-0.579,-0.816,-33.630,51.697,-211.487
0.629,-0.647,-0.822,-17.334,40.710,-198.608
0.753,-0.637,-0.784,-4.639,32.471,-178.589
0.819,-0.523,-0.693,4.517,27.161,-152.710
0.890,-0.380,-0.608,5.737,26.306,-127.075
0.923,-0.322,-0.585,-0.977,29.846,-105.286
0.973,-0.378,-0.658,-10.376,36.804,-89.966
0.969,-0.442,-0.734,-15.564,42.664,-80.933
0.942,-0.488,-0.820,-14.099,42.969,-73.853
0.915,-0.547,-0.879,-6.104,37.842,-63.477
0.857,-0.521,-0.896,5.249,27.649,-49.011
0.837,-0.422,-0.889,19.470,14.832,-31.738
0.836,-0.355,-0.855,31.738,1.099,-12.939
0.837,-0.244,-0.770,36.377,-10.986,7.568
0.859,-0.060,-0.663,35.522,-16.541,29.602
0.898,0.129,-0.595,32.837,-15.259,45.471
0.888,0.241,-0.554,28.931,-10.437,50.476
0.833,0.354,-0.530,25.330,0.000,43.396
0.802,0.454,-0.535,23.071,12.451,31.921
0.776,0.454,-0.554,20.813,20.691,21.973
0.680,0.440,-0.580,16.724,24.719,15.442
0.584,0.427,-0.652,15.564,24.719,12.268
0.564,0.368,-0.703,17.212,19.897,11.719
0.604,0.310,-0.708,19.653,12.390,12.573
0.646,0.283,-0.706,26.550,4.822,13.184
0.659,0.204,-0.667,36.255,-0.977,15.869
0.698,0.175,-0.634,44.373,-2.747,23.132
0.735,0.149,-0.603,49.072,-5.249,30.090
0.791,0.057,-0.597,52.673,-7.080,36.133
0.843,-0.066,-0.580,56.946,-7.324,40.894
0.926,-0.183,-0.554,63.782,-4.639,47.852
0.973,-0.280,-0.547,71.655,0.549,57.007
0.957,-0.361,-0.555,80.994,7.629,67.444
0.923,-0.405,-0.549,95.825,15.259,77.026
0.865,-0.460,-0.543,113.098,20.996,87.341
0.731,-0.426,-0.485,129.639,23.987,99.548
0.626,-0.345,-0.424,142.273,21.301,117.004
0.576,-0.343,-0.385,145.264,14.099,140.137
0.477,-0.310,-0.334,138.916,9.155,163.208
0.347,-0.180,-0.289,136.230,10.864,182.068
0.272,-0.091,-0.260,142.090,16.235,195.984
0.231,-0.042,-0.246,146.606,23.682,203.308
0.169,-0.006,-0.202,148.621,35.217,205.383
0.147,0.075,-0.174,154.785,55.237,203.186
0.144,0.094,-0.175,166.809,80.444,192.688
0.065,0.043,-0.143,187.073,104.309,169.617
-0.146,0.046,-0.097,217.590,122.742,143.921
-0.387,0.220,-0.080,248.413,128.296,130.188
-0.575,0.338,-0.066,264.771,115.723,134.827
-0.641,0.382,-0.018,265.442,90.576,154.907
-0.722,0.450,0.032,254.089,55.847,182.190
-0.704,0.455,0.047,237.427,21.973,214.233
-0.679,0.417,0.183,223.572,-4.700,238.342
-0.719,0.584,0.387,218.994,-16.418,255.371
-0.596,0.694,0.521,229.736,-5.920,264.526
-0.496,0.665,0.679,250.610,17.944,251.709
-0.417,0.657,0.862,283.813,53.711,215.454
-0.318,0.604,1.072,332.825,94.543,164.124
-0.320,0.705,1.312,386.169,129.822,111.633
-0.411,1.217,1.604,426.941,146.484,79.956
-0.592,1.425,1.759,427.368,130.798,96.375
-0.776,1.434,1.636,368.164,98.511,138.062
-0.821,1.440,1.468,280.579,67.749,159.302
-0.808,1.288,1.341,209.839,38.025,158.264
-0.626,1.009,1.215,174.622,14.832,149.536
-0.397,0.727,1.154,161.926,1.038,147.705
-0.225,0.492,1.211,162.659,-2.319,154.785
-0.043,0.492,1.335,176.025,13.367,165.100
0.197,0.456,1.434,195.068,48.462,171.326
0.241,0.445,1.536,211.853,91.553,163.574
0.094,0.512,1.614,232.788,136.780,141.907
-0.086,0.635,1.672,256.653,179.382,118.591
-0.355,0.680,1.664,274.231,199.768,102.600
-0.702,0.628,1.547,271.667,190.186,103.088
-0.961,0.568,1.363,258.301,164.124,112.122
-0.991,0.432,1.151,245.728,130.615,123.352
-0.851,0.297,1.012,229.492,91.797,139.832
-0.667,0.125,0.880,210.022,44.373,165.527
-0.522,-0.070,0.865,192.322,2.197,195.923
-0.411,-0.096,1.018,181.885,-18.860,222.473
-0.091,0.050,1.146,181.213,-11.230,246.765
0.193,0.118,1.341,184.448,15.930,255.737
0.204,0.223,1.544,194.702,51.697,243.164
-0.080,0.313,1.604,209.595,92.590,218.567
-0.344,0.353,1.468,221.680,131.592,187.683
-0.794,0.368,1.328,224.976,143.311,158.569
-1.214,0.300,1.073,219.849,125.305,139.526
-1.330,0.193,0.866,208.984,96.375,130.859

-1.011,1.312,0.719,-63.904,-112.061,-203.430
-1.053,1.630,0.799,-77.576,-94.177,-202.332
-1.133,1.676,0.916,-95.642,-75.439,-208.252
-1.263,1.627,0.856,-122.253,-55.176,-223.511
-1.318,1.424,0.773,-143.555,-36.926,-261.963
-1.233,1.085,0.553,-142.578,-22.339,-302.307
-1.155,0.794,0.355,-129.578,-19.409,-325.867
-1.003,0.559,0.227,-113.708,-23.926,-326.477
-0.760,0.474,0.155,-99.121,-28.259,-304.382
-0.591,0.500,0.117,-88.501,-32.288,-267.212
-0.431,0.542,0.071,-83.557,-29.175,-225.708
-0.274,0.683,0.051,-84.595,-18.555,-193.787
-0.193,0.769,0.001,-87.646,-8.240,-172.302
-0.159,0.810,-0.078,-96.130,0.183,-162.170
-0.143,0.743,-0.187,-108.337,9.094,-163.818
-0.124,0.662,-0.298,-119.080,16.357,-175.232
-0.154,0.581,-0.427,-120.850,20.020,-192.932
-0.166,0.479,-0.539,-114.258,24.902,-213.867
-0.131,0.356,-0.601,-104.431,33.508,-236.694
-0.050,0.227,-0.674,-91.553,40.894,-257.507
-0.028,0.086,-0.745,-69.580,45.349,-277.344
-0.027,-0.011,-0.797,-48.157,44.739,-288.147
0.030,-0.069,-0.772,-31.616,40.710,-284.851
0.097,-0.080,-0.718,-21.179,36.560,-267.334
0.189,-0.082,-0.709,-18.005,35.034,-244.141
0.285,-0.095,-0.639,-20.264,33.936,-225.464
0.336,-0.129,-0.620,-27.527,34.424,-208.618
0.430,-0.114,-0.610,-36.743,37.842,-192.505
0.503,-0.131,-0.607,-41.687,43.213,-181.885
0.536,-0.150,-0.645,-40.527,44.373,-183.594
0.427,-0.264,-0.714,-32.104,36.987,-187.195
0.338,-0.370,-0.764,-26.794,27.405,-179.382
0.299,-0.450,-0.815,-24.048,19.287,-166.138
0.321,-0.501,-0.844,-17.700,9.094,-157.104
0.357,-0.548,-0.814,-8.545,-2.930,-151.855
0.450,-0.561,-0.726,1.831,-11.841,-142.334
0.592,-0.507,-0.617,11.597,-15.198,-129.089
0.709,-0.413,-0.517,15.015,-13.672,-115.845
0.788,-0.395,-0.489,11.536,-10.681,-100.342
0.820,-0.410,-0.480,2.686,-6.042,-85.815
0.824,-0.412,-0.528,-4.150,0.061,-74.585
0.779,-0.439,-0.592,-4.944,2.197,-63.477
0.732,-0.461,-0.621,-2.625,-2.075,-49.316
0.556,-0.257,-0.712,-3.296,-11.108,-32.349
0.671,-0.325,-0.650,-3.479,-19.836,-23.682
0.924,-0.337,-0.590,0.854,-13.733,-26.367
0.902,-0.314,-0.598,12.512,-13.611,-20.020
0.903,-0.168,-0.529,20.142,-10.742,-12.268
0.907,-0.042,-0.488,22.705,-7.568,-2.319
0.894,0.044,-0.469,20.935,-6.042,6.958
0.898,0.114,-0.470,18.982,-3.174,11.780
0.888,0.152,-0.472,20.569,-0.916,10.620
0.909,0.149,-0.462,25.574,-0.427,7.935
0.923,0.144,-0.476,29.541,-1.221,7.751
0.924,0.118,-0.462,31.921,-2.625,10.681
0.907,0.104,-0.436,33.264,-4.028,17.334
0.928,0.096,-0.419,32.227,-3.418,25.940
0.959,0.062,-0.397,29.785,-1.465,32.898
0.965,0.036,-0.364,26.794,0.854,38.025
0.954,-0.014,-0.355,20.569,7.385,42.847
0.954,-0.042,-0.343,14.587,19.653,44.861
0.902,-0.092,-0.422,12.329,31.799,50.537
0.833,-0.093,-0.490,14.038,41.260,51.636
0.745,-0.117,-0.531,21.667,47.241,48.584
0.673,-0.125,-0.554,32.837,50.720,45.471
0.638,-0.065,-0.531,46.692,53.589,40.833
0.650,-0.091,-0.490,61.584,52.490,38.635
0.655,-0.173,-0.493,68.848,47.302,47.485
0.650,-0.249,-0.506,67.505,40.405,65.979
0.640,-0.299,-0.532,63.538,32.715,90.210
0.616,-0.367,-0.550,59.021,26.367,115.417
0.589,-0.359,-0.541,54.626,26.062,137.634
0.532,-0.237,-0.560,56.396,35.217,151.062
0.447,-0.102,-0.568,72.021,48.462,149.109
0.364,0.017,-0.549,96.802,61.951,134.155
0.300,0.124,-0.520,120.239,73.425,117.004
0.298,0.290,-0.477,136.658,81.665,101.013
0.345,0.334,-0.427,146.729,83.862,89.417
0.393,0.252,-0.422,146.179,79.529,88.989
0.391,0.107,-0.473,136.536,71.350,101.868
0.329,-0.045,-0.549,127.869,60.608,124.695
0.199,-0.143,-0.626,127.930,48.889,152.893
0.003,-0.097,-0.668,136.963,34.790,181.946
-0.166,-0.065,-0.677,154.114,20.508,208.008
-0.338,0.025,-0.615,178.284,6.897,224.976
-0.499,0.250,-0.498,204.895,-2.991,234.192
-0.459,0.421,-0.391,226.501,-4.028,238.770
-0.358,0.546,-0.234,240.662,-2.014,235.535
-0.276,0.804,-0.046,250.000,-1.770,228.210
-0.158,0.941,0.061,248.047,-2.686,227.600
-0.067,0.882,0.102,224.365,-3.418,226.929
-0.098,0.769,0.095,193.726,-2.136,218.994
-0.249,0.627,0.038,186.035,-0.793,208.984
-0.389,0.459,0.001,200.195,-0.122,200.562
-0.456,0.269,0.015,224.121,0.916,193.542
-0.547,0.120,0.104,254.761,0.305,189.514
-0.684,0.062,0.249,293.396,-5.371,193.420
-0.815,0.214,0.601,330.505,-12.756,212.769
-0.811,0.771,0.792,345.764,-12.451,257.629
-0.698,1.180,1.006,326.721,-1.892,307.861
-0.661,1.459,1.232,277.527,15.808,318.481
-0.648,1.715,1.313,237.000,38.086,294.922
-0.610,1.760,1.263,216.980,59.937,245.117
-0.557,1.557,1.199,197.815,74.341,179.810
-0.536,1.244,1.158,184.082,83.618,127.075
-0.510,0.895,1.070,173.218,90.393,95.520
-0.381,0.523,1.015,168.457,106.140,83.252
-0.314,0.258,1.009,175.049,119.507,87.097
-0.342,0.145,1.037,197.021,126.282,103.027
-0.363,0.135,1.096,232.178,126.404,123.596
-0.478,0.146,1.148,258.667,114.563,160.706
-0.660,0.310,1.275,258.118,98.694,207.336
-0.715,0.531,1.328,226.868,90.515,250.854
-0.788,0.652,1.292,190.247,85.510,277.100
-0.763,0.676,1.233,166.931,87.402,273.987
-0.670,0.638,1.243,160.645,99.121,250.000
-0.526,0.595,1.294,166.321,115.662,217.224
-0.392,0.465,1.389,175.537,132.080,186.890
-0.272,0.406,1.488,179.810,151.062,170.898

-0.545,0.538,1.843,157.410,146.667,194.763
-0.632,0.604,1.874,117.371,153.320,179.260
-0.693,0.501,1.791,87.891,160.706,154.236
-0.810,0.301,1.678,74.463,169.556,119.019
-0.913,0.106,1.544,82.153,179.504,78.674
-0.832,-0.023,1.470,102.844,195.923,49.927
-0.730,-0.032,1.382,123.840,203.247,41.687
-0.628,-0.054,1.323,137.817,189.819,48.889
-0.580,-0.212,1.213,134.583,165.710,61.951
-0.479,-0.218,1.148,125.488,150.269,64.819
-0.344,-0.161,1.093,126.038,137.024,71.045
-0.222,-0.168,1.095,128.662,122.437,80.872
-0.167,-0.079,1.112,120.667,114.807,92.041
-0.142,0.075,1.114,102.783,118.530,99.060
-0.166,0.151,1.111,89.539,128.418,93.506
-0.341,0.217,1.155,78.247,136.963,75.195
-0.607,0.283,1.162,66.589,135.681,52.307
-0.891,0.323,1.061,56.946,122.742,30.579
-1.058,0.330,0.937,52.002,101.318,8.850
-1.086,0.183,0.883,47.729,73.975,-5.188
-0.987,0.060,0.784,42.725,48.706,-7.141
-0.809,-0.108,0.666,36.011,19.287,-0.854
-0.636,-0.265,0.581,14.832,-14.099,14.038
-0.498,-0.242,0.674,-16.174,-43.945,35.034
-0.309,-0.188,0.708,-19.897,-53.894,50.476
-0.132,-0.137,0.737,-3.174,-47.546,53.101
-0.055,-0.100,0.759,8.728,-33.997,44.434
-0.043,-0.077,0.777,17.822,-17.029,24.170
-0.078,-0.100,0.804,26.917,-2.930,0.183
-0.233,-0.169,0.831,31.006,5.066,-16.174
-0.150,-0.179,0.911,28.381,8.911,-33.325
-0.293,-0.183,0.995,25.146,-3.723,-39.124
-0.285,-0.202,1.074,13.184,-23.560,-27.649
-0.222,-0.187,1.177,-9.644,-43.091,-14.893
-0.168,-0.110,1.267,-36.865,-57.007,-4.639
-0.077,-0.096,1.336,-57.129,-60.547,-3.662
0.005,-0.139,1.375,-68.665,-53.772,-6.226
0.017,-0.168,1.385,-71.777,-39.917,-9.033
-0.029,-0.199,1.342,-68.237,-20.996,-12.146
-0.067,-0.221,1.290,-60.974,-4.150,-20.630
-0.213,-0.243,1.238,-56.396,1.892,-29.297
-0.345,-0.250,1.217,-56.946,-0.488,-31.311
-0.449,-0.224,1.221,-62.378,-9.949,-27.344
-0.495,-0.186,1.244,-72.205,-21.545,-18.555
-0.505,-0.117,1.283,-82.581,-31.860,-12.268
-0.517,-0.060,1.314,-89.905,-44.861,-7.568
-0.547,-0.014,1.340,-99.060,-59.143,-3.662
-0.553,-0.000,1.356,-116.516,-72.510,-1.526
-0.530,0.050,1.265,-134.155,-87.585,-5.066
-0.651,-0.014,1.303,-145.752,-101.196,-18.921
-0.697,0.004,1.233,-150.269,-112.915,-26.611
-0.731,-0.014,1.195,-150.208,-126.099,-29.297
-0.779,-0.021,1.166,-153.687,-142.883,-26.611
-0.845,-0.041,1.091,-163.696,-165.710,-19.470
-0.918,-0.059,1.075,-172.058,-186.951,-11.719
-0.813,-0.032,1.074,-168.701,-202.454,-4.272
-0.670,-0.060,1.026,-151.550,-219.421,-7.019
-0.609,-0.131,1.058,-147.644,-245.178,-21.851
-0.708,-0.060,1.109,-166.565,-279.175,-33.386
-0.818,0.187,1.158,-189.880,-306.824,-34.302
-0.844,0.308,1.278,-192.322,-320.007,-29.785
-0.889,0.426,1.317,-192.200,-334.717,-30.151
-0.964,0.492,1.304,-200.745,-349.792,-36.804
-0.905,0.481,1.328,-206.421,-354.614,-52.734
-0.746,0.482,1.365,-208.374,-354.004,-73.181
-0.650,0.454,1.425,-203.552,-345.032,-98.511
-0.635,0.401,1.425,-182.800,-319.336,-119.141
-0.620,0.492,1.365,-150.879,-284.241,-136.169
-0.683,0.510,1.299,-126.038,-257.996,-145.569
-0.893,0.623,1.094,-120.544,-247.681,-148.682
-1.100,0.668,0.926,-120.911,-241.760,-155.151
-1.281,0.784,0.713,-126.282,-242.920,-160.828
-1.459,0.951,0.484,-132.507,-253.296,-165.710
-1.531,0.883,0.237,-131.653,-268.616,-170.105
-1.609,1.049,0.037,-127.563,-287.598,-171.692
-1.509,1.192,-0.130,-122.559,-304.077,-180.969
-1.350,1.061,-0.102,-118.591,-327.271,-212.646
-1.184,0.690,0.129,-120.972,-353.027,-239.197
-0.948,0.484,0.271,-121.643,-364.258,-231.384
-0.747,0.413,0.352,-125.305,-364.990,-209.351
-0.649,0.451,0.404,-127.686,-360.840,-190.491
-0.564,0.448,0.390,-116.333,-349.426,-172.241
-0.555,0.463,0.338,-95.520,-330.688,-158.630
-0.539,0.621,0.243,-62.622,-304.199,-156.433
-0.525,0.640,0.177,-28.870,-276.001,-160.889
-0.515,0.653,0.165,-13.306,-253.052,-165.771
-0.596,0.707,0.205,-10.742,-234.802,-172.546
-0.647,0.979,0.334,-11.902,-212.708,-185.791
-0.637,1.174,0.520,-14.160,-186.096,-198.914
-0.627,1.345,0.658,-30.945,-163.696,-211.304
-0.659,1.482,0.760,-59.326,-147.583,-225.403
-0.725,1.513,0.798,-89.539,-134.338,-235.718
-0.842,1.507,0.873,-130.310,-129.272,-243.530
-0.993,1.387,0.955,-177.490,-126.099,-251.465
-1.041,1.091,0.891,-210.754,-114.624,-264.099
-1.118,0.790,0.680,-222.351,-97.229,-282.837
-1.081,0.536,0.485,-202.026,-72.754,-301.147
-0.892,0.385,0.324,-156.250,-44.678,-309.387
-0.707,0.319,0.217,-113.953,-21.240,-309.204
-0.582,0.352,0.146,-79.895,-5.005,-300.781
-0.483,0.488,0.073,-59.387,2.197,-281.311
-0.343,0.659,0.024,-54.321,3.784,-253.784
-0.126,0.702,-0.042,-66.528,5.249,-228.516
0.107,0.692,-0.073,-80.994,12.268,-221.863
0.185,0.715,-0.056,-84.229,26.184,-235.657
0.165,0.714,-0.117,-84.351,44.678,-255.371
0.089,0.597,-0.199,-87.952,62.073,-269.714
0.017,0.427,-0.315,-93.628,71.777,-277.466
-0.068,0.208,-0.457,-96.375,72.144,-278.564
-0.152,-0.030,-0.680,-93.140,63.110,-273.376
-0.123,-0.153,-0.850,-82.031,46.021,-263.855
-0.055,-0.193,-0.891,-63.721,23.254,-248.169
0.150,-0.303,-0.814,-45.227,7.385,-229.797
0.443,-0.302,-0.722,-34.363,4.395,-204.712
0.654,-0.212,-0.592,-33.447,4.028,-181.519
0.742,-0.099,-0.472,-39.307,3.357,-166.138
0.764,-0.160,-0.418,-45.959,8.240,-151.978
0.787,-0.092,-0.418,-49.255,21.667,-136.108
0.716,-0.152,-0.500,-47.180,33.447,-130.066

0.207,0.860,1.630,235.840,-0.732,134.521
0.011,1.080,1.679,248.596,25.330,105.652
-0.185,1.241,1.672,239.807,36.316,98.877
-0.281,1.296,1.578,209.961,33.081,109.680
-0.258,1.258,1.470,171.875,20.813,120.117
-0.183,1.115,1.365,139.221,0.977,126.709
-0.012,0.912,1.325,121.399,-13.550,132.019
0.192,0.643,1.302,115.479,-15.381,138.306
0.325,0.510,1.303,122.437,1.404,139.893
0.387,0.445,1.369,149.353,38.025,125.549
0.291,0.779,1.600,192.993,85.266,92.102
0.232,1.107,1.784,230.286,126.953,59.326
0.005,1.237,1.799,233.215,145.569,46.814
-0.202,1.304,1.661,208.252,143.188,42.297
-0.232,1.220,1.497,177.795,127.136,42.053
-0.126,1.037,1.385,144.470,101.746,52.124
0.029,0.832,1.286,112.305,76.294,71.289
0.142,0.643,1.213,88.196,58.960,92.896
0.205,0.571,1.173,74.158,56.274,112.915
0.347,0.363,1.117,73.730,69.275,131.714
0.359,0.246,1.015,85.449,89.233,134.705
0.230,0.230,0.962,117.493,118.225,108.337
0.194,0.261,1.006,167.236,162.048,66.895
0.056,0.421,1.000,213.501,190.979,22.278
-0.236,0.550,1.060,236.938,192.017,-1.221
-0.626,0.841,1.078,237.732,163.757,7.385
-0.816,1.024,1.037,216.797,117.188,46.387
-0.772,0.964,0.984,165.344,65.796,100.037
-0.726,0.921,0.976,85.876,12.268,154.358
-0.685,0.728,0.874,9.888,-27.039,201.477
-0.588,0.344,0.709,-25.208,-37.598,222.595
-0.547,0.140,0.521,-13.672,-19.653,202.942
-0.522,0.091,0.508,43.091,16.663,147.644
-0.458,0.104,0.600,124.695,52.490,80.444
-0.470,0.076,0.702,192.871,71.472,31.921
-0.560,0.110,0.827,227.112,72.815,11.841
-0.681,0.191,0.967,234.558,59.814,17.822
-0.807,0.221,1.075,220.642,37.903,40.771
-0.826,0.330,1.246,196.655,16.235,61.584
-0.662,0.409,1.426,180.176,-3.845,68.298
-0.473,0.542,1.644,159.912,-16.846,66.040
-0.140,0.431,1.911,133.911,-17.517,58.777
0.005,0.506,1.924,132.263,-7.874,66.101
0.056,0.519,1.876,127.563,15.686,69.946
-0.113,0.740,1.675,125.671,45.837,65.613
-0.413,0.938,1.475,124.939,66.833,51.392
-0.868,1.073,1.247,118.774,72.205,31.372
-1.140,1.177,1.029,106.323,70.984,7.874
-1.169,1.278,0.908,88.440,60.303,-14.160
-0.803,1.095,1.030,60.791,33.508,-33.875
-0.482,0.790,1.109,16.541,-1.831,-48.950
-0.079,0.258,1.139,-28.259,-22.827,-57.190
0.400,-0.297,1.098,-62.378,-23.560,-58.044
0.719,-0.778,0.986,-80.811,-12.695,-52.551
0.809,-1.145,0.838,-79.346,4.578,-43.335
0.728,-1.125,0.711,-57.739,24.780,-30.518
0.539,-0.867,0.685,-17.822,37.781,-17.151
0.273,-0.574,0.741,21.484,38.757,-7.446
0.066,-0.243,0.827,39.734,32.288,-1.709
-0.057,0.016,0.941,35.889,18.005,8.667
-0.096,0.175,1.032,20.447,-0.916,23.254
-0.061,0.219,1.133,1.587,-16.479,35.828
0.011,0.262,1.213,-17.700,-25.208,42.236
0.030,0.301,1.266,-34.790,-26.917,43.579
-0.037,0.335,1.272,-48.340,-25.818,41.992
-0.123,0.357,1.242,-58.960,-24.292,37.903
-0.235,0.417,1.206,-65.918,-24.963,30.701
-0.338,0.448,1.206,-71.899,-29.175,24.475
-0.440,0.470,1.191,-82.764,-37.170,23.071
-0.542,0.443,1.140,-99.854,-49.927,25.269
-0.583,0.339,1.086,-119.690,-67.078,28.503
-0.544,0.128,1.013,-136.719,-87.708,33.386
-0.505,0.020,0.943,-144.897,-107.849,40.771
-0.522,0.041,0.926,-139.954,-126.892,49.805
-0.536,0.077,1.007,-127.502,-144.592,57.495
-0.561,0.167,1.072,-120.972,-163.086,65.552
-0.623,0.286,1.110,-124.268,-181.946,77.698
-0.734,0.407,1.105,-132.324,-203.125,89.478
-0.887,0.493,1.052,-143.494,-225.830,99.731
-1.002,0.662,1.041,-162.476,-246.948,105.957
-1.081,0.852,1.080,-187.683,-267.273,109.863
-1.109,0.894,1.086,-214.417,-289.001,107.605
-1.132,0.867,1.072,-237.732,-312.744,93.994
-1.185,0.784,1.025,-250.061,-336.487,72.876
-1.280,0.668,0.962,-245.911,-356.140,47.913
-1.353,0.564,0.910,-231.018,-368.469,25.391
-1.382,0.512,0.847,-208.801,-370.728,7.507
-1.357,0.602,0.837,-181.030,-364.868,-6.470
-1.222,0.775,0.930,-160.461,-352.295,-16.357
-1.130,1.011,1.022,-156.067,-340.088,-26.489
-1.145,1.201,1.037,-159.790,-334.229,-36.682
-1.241,1.243,0.987,-165.100,-331.238,-48.035
-1.341,1.187,0.847,-171.326,-327.209,-69.397
-1.369,1.084,0.702,-171.204,-321.411,-100.830
-1.378,0.938,0.622,-159.424,-319.458,-134.094
-1.438,0.895,0.527,-148.682,-320.618,-156.982
-1.521,0.879,0.412,-144.714,-321.777,-164.551
-1.583,0.837,0.341,-140.198,-319.885,-161.316
-1.629,0.966,0.346,-131.165,-314.636,-158.447
-1.625,1.121,0.401,-119.995,-309.143,-161.316
-1.614,1.247,0.488,-115.784,-305.176,-169.739
-1.523,1.345,0.599,-125.732,-300.354,-179.565
-1.390,1.351,0.722,-148.071,-296.204,-190.552
-1.293,1.315,0.741,-174.988,-296.326,-206.360
-1.221,1.192,0.713,-198.486,-293.091,-227.844
-1.143,0.943,0.625,-209.412,-281.799,-252.930
-1.088,0.793,0.548,-208.496,-265.930,-281.738
-0.989,0.642,0.475,-203.430,-241.150,-305.664
-0.910,0.400,0.356,-194.275,-212.830,-323.486
-0.893,0.282,0.248,-176.453,-185.730,-338.562
-0.877,0.229,0.194,-151.184,-159.851,-341.736
-0.834,0.225,0.155,-122.559,-136.963,-334.839
-0.781,0.300,0.207,-93.933,-120.300,-324.402
-0.813,0.516,0.327,-71.899,-110.657,-311.401
-0.740,0.697,0.387,-68.176,-103.516,-292.542
-0.605,0.745,0.459,-88.318,-99.182,-275.146
-0.494,0.668,0.471,-117.493,-99.670,-266.968
-0.380,0.484,0.383,-141.113,-101.563,-267.639
-0.262,0.218,0.230,-154.785,-100.281,-273.437

-0.229,0.850,1.276,334.656,145.935,127.075
-0.148,0.616,1.377,357.666,156.189,93.384
-0.154,0.548,1.466,363.281,155.823,83.923
-0.211,0.432,1.478,363.281,145.752,99.426
-0.363,0.357,1.512,362.000,130.493,122.314
-0.574,0.415,1.538,360.596,114.502,142.761
-0.759,0.543,1.581,355.347,99.182,165.161
-0.858,0.784,1.641,343.567,86.243,189.331
-0.830,1.066,1.687,323.181,78.857,209.106
-0.776,1.301,1.735,289.429,74.036,210.693
-0.679,1.369,1.678,246.948,69.946,193.298
-0.578,1.290,1.530,202.454,64.575,160.889
-0.625,1.047,1.406,168.091,55.359,120.361
-0.590,0.746,1.185,151.123,52.612,86.670
-0.549,0.403,0.998,145.874,56.580,71.350
-0.602,0.176,0.838,145.203,58.838,70.435
-0.672,0.128,0.760,145.752,55.359,82.153
-0.700,0.114,0.796,168.152,47.424,83.801
-0.772,0.081,0.855,212.158,30.823,80.200
-0.906,0.114,0.991,246.338,8.423,84.595
-0.883,0.369,1.175,254.089,-7.690,95.520
-0.660,0.557,1.354,248.169,-15.442,107.544
-0.474,0.607,1.471,236.511,-22.339,106.506
-0.401,0.641,1.503,213.562,-24.475,95.947
-0.317,0.554,1.482,185.425,-15.076,79.712
-0.209,0.427,1.365,165.466,2.197,58.716
-0.264,0.220,1.284,156.189,17.822,44.678
-0.300,0.044,1.206,151.611,35.156,37.598
-0.292,0.007,1.207,151.367,51.086,34.424
-0.295,-0.009,1.215,157.715,55.115,33.386
-0.308,-0.041,1.287,163.269,47.729,36.804
-0.333,-0.031,1.380,165.039,37.476,44.312
-0.291,0.023,1.478,161.621,31.799,51.270
-0.211,0.090,1.534,155.945,33.569,54.443
-0.131,0.161,1.557,150.085,41.565,56.030
-0.046,0.207,1.560,141.541,52.673,56.152
0.033,0.201,1.549,130.127,65.125,52.917
0.072,0.179,1.509,115.662,77.209,47.729
0.043,0.127,1.427,98.999,86.975,41.992
-0.023,0.064,1.323,85.144,94.604,35.583
-0.067,-0.004,1.245,77.759,99.243,29.419
-0.110,-0.065,1.195,73.730,100.098,24.719
-0.119,-0.147,1.168,70.435,97.534,22.400
-0.134,-0.191,1.151,65.918,92.529,25.635
-0.128,-0.198,1.135,62.134,87.097,35.828
-0.138,-0.198,1.102,58.105,80.688,48.889
-0.083,-0.120,1.141,50.781,76.599,61.951
-0.072,-0.023,1.146,41.565,72.754,74.768
-0.172,0.087,0.998,27.466,73.608,81.055
0.101,0.143,1.129,13.123,82.275,70.496
-0.058,0.211,1.086,-0.732,67.810,55.420
-0.159,0.132,1.052,-14.954,58.777,50.720
-0.296,0.070,0.961,-33.447,51.575,46.570
-0.354,-0.034,0.910,-48.462,46.753,43.213
-0.390,-0.101,0.869,-57.434,35.767,33.875
-0.342,-0.145,0.821,-63.171,22.156,27.954
-0.337,-0.217,0.802,-63.660,6.958,28.381
-0.309,-0.248,0.794,-55.969,-3.174,31.799
-0.246,-0.243,0.808,-43.213,-6.836,34.363
-0.179,-0.156,0.847,-29.846,-9.399,34.058
-0.154,-0.060,0.894,-22.400,-13.794,36.377
-0.117,0.021,0.942,-23.865,-16.418,37.903
-0.079,0.017,0.964,-31.006,-16.846,37.109
-0.044,-0.005,0.967,-39.001,-16.541,29.846
-0.055,-0.017,0.967,-42.847,-16.602,16.602
-0.077,-0.068,0.958,-43.945,-16.907,5.615
-0.121,-0.130,0.962,-45.288,-18.860,-1.953
-0.147,-0.195,0.975,-47.241,-22.949,-6.470
-0.206,-0.221,0.997,-47.791,-31.372,-8.423
-0.251,-0.272,1.004,-48.218,-41.260,-3.906
-0.291,-0.257,1.012,-50.964,-53.833,1.404
-0.291,-0.216,1.037,-55.176,-67.627,8.850
-0.290,-0.185,1.090,-60.791,-83.557,18.066
-0.262,-0.166,1.179,-67.993,-99.670,31.067
-0.246,-0.053,1.223,-77.148,-113.403,46.875
-0.249,0.090,1.313,-99.976,-125.671,57.495
-0.266,0.187,1.374,-124.084,-133.667,65.002
-0.287,0.258,1.388,-143.494,-142.578,70.801
-0.453,0.292,1.406,-160.889,-153.748,73.730
-0.457,0.350,1.352,-174.561,-160.828,82.031
-0.527,0.343,1.316,-196.960,-180.542,82.520
-0.652,0.315,1.265,-225.830,-206.238,75.806
-0.685,0.294,1.203,-250.427,-228.210,65.857
-0.712,0.289,1.120,-266.296,-250.977,54.626
-0.751,0.264,1.081,-275.452,-277.100,47.729
-0.784,0.267,1.029,-281.189,-302.612,43.945
-0.878,0.301,0.974,-288.208,-326.599,42.908
-1.003,0.473,0.962,-297.546,-341.858,43.701
-1.160,0.658,0.954,-300.720,-351.562,46.387
-1.312,0.860,0.891,-300.232,-363.037,42.603
-1.461,0.982,0.798,-302.124,-374.573,30.396
-1.562,1.055,0.693,-304.687,-381.897,9.460
-1.571,1.025,0.579,-297.729,-383.240,-20.264
-1.510,0.936,0.482,-279.968,-379.578,-54.871
-1.403,0.804,0.404,-254.456,-369.019,-88.440
-1.335,0.695,0.295,-223.877,-351.318,-115.479
-1.285,0.618,0.155,-191.223,-329.590,-132.812
-1.233,0.523,0.008,-160.156,-306.030,-140.747
-1.212,0.532,-0.140,-131.226,-283.875,-142.761
-1.166,0.569,-0.257,-100.708,-263.184,-141.541
-1.127,0.574,-0.257,-69.092,-243.896,-142.090
-1.129,0.644,-0.213,-39.795,-225.464,-147.034
-1.161,0.740,-0.185,-11.780,-210.571,-151.245
-1.169,0.771,-0.145,9.949,-202.271,-152.893
-1.174,0.771,-0.079,18.738,-202.332,-152.771
-1.192,0.800,-0.010,17.883,-209.290,-151.550
-1.209,0.777,0.029,15.808,-217.773,-149.170
-1.202,0.719,0.062,13.733,-226.074,-149.658
-1.219,0.725,0.081,14.038,-233.032,-151.550
-1.226,0.744,0.109,21.057,-236.511,-152.893
-1.199,0.768,0.126,29.785,-236.938,-153.259
-1.137,0.800,0.158,31.433,-237.061,-153.503
-1.100,0.785,0.150,27.588,-240.112,-155.945
-1.032,0.706,0.155,25.513,-244.141,-162.781
-0.972,0.620,0.195,26.978,-248.901,-176.636
-0.888,0.501,0.224,33.691,-251.526,-188.049
-0.758,0.351,0.276,44.373,-247.864,-193.237
-0.647,0.290,0.352,55.481,-239.563,-195.007
-0.550,0.329,0.400,67.444,-227.295,-187.439

-1.461,0.731,0.601,216.309,176.147,253.967
-1.304,0.802,0.763,240.417,166.382,238.831
-1.069,0.887,0.957,255.005,164.795,223.755
-0.915,1.000,1.151,260.132,165.710,206.909
-0.859,1.172,1.305,254.883,164.551,188.538
-0.963,1.328,1.391,236.694,157.410,171.936
-1.241,1.359,1.311,205.566,145.264,167.114
-1.541,1.307,1.128,167.725,130.798,172.363
-1.804,1.247,0.936,135.132,112.244,176.819
-1.908,1.165,0.761,115.417,90.149,176.331
-1.779,1.066,0.641,104.065,66.101,176.208
-1.488,0.901,0.605,95.154,40.649,178.223
-1.387,0.859,0.642,92.346,18.555,178.833
-1.203,0.769,0.673,105.896,14.709,168.518
-0.959,0.716,0.760,124.146,22.644,143.677
-0.854,0.804,0.897,137.024,25.391,119.080
-0.902,0.859,0.983,137.939,16.235,112.976
-1.065,0.817,1.009,118.286,1.465,129.517
-1.322,0.881,0.978,85.754,-12.085,154.419
-1.499,0.920,0.863,64.270,-25.391,169.189
-1.508,0.893,0.795,63.049,-40.283,164.246
-1.337,0.811,0.804,73.792,-54.260,147.583
-1.083,0.637,0.823,85.083,-61.768,136.292
-0.800,0.483,0.812,98.938,-55.603,129.211
-0.526,0.221,0.852,121.887,-30.884,122.559
-0.273,0.161,0.931,156.860,7.263,108.765
-0.127,0.169,1.009,195.557,44.373,87.952
-0.121,0.195,1.086,221.008,74.463,69.946
-0.171,0.248,1.118,231.750,97.351,60.425
-0.199,0.306,1.125,230.042,114.197,57.861
-0.222,0.369,1.123,217.957,122.620,59.143
-0.313,0.408,1.094,197.876,120.728,64.453
-0.449,0.424,1.032,169.250,109.497,73.547
-0.567,0.360,0.949,133.850,92.712,87.524
-0.609,0.267,0.855,95.642,73.975,100.708
-0.532,0.038,0.778,67.932,62.500,108.276
-0.419,-0.217,0.747,62.073,67.627,110.962
-0.202,-0.380,0.739,77.942,90.332,107.788
-0.070,-0.461,0.805,116.211,121.155,96.497
-0.075,-0.428,0.896,165.100,153.748,77.759
-0.119,-0.278,1.010,205.688,186.646,55.237
-0.201,-0.005,1.114,227.478,214.478,35.950
-0.250,0.273,1.200,227.417,234.253,25.269
-0.324,0.511,1.258,207.153,240.967,21.301
-0.460,0.692,1.291,169.617,232.361,21.118
-0.672,0.734,1.341,120.728,209.595,25.574
-0.917,0.639,1.320,64.453,178.589,34.180
-1.005,0.523,1.262,5.249,149.109,43.335
-0.938,0.267,1.149,-44.373,123.962,54.199
-0.798,0.014,1.074,-72.021,110.657,63.416
-0.652,-0.170,1.005,-71.045,106.628,61.035
-0.493,-0.189,0.967,-49.072,110.962,41.321
-0.399,-0.044,0.959,-18.005,119.751,10.315
-0.321,0.073,0.969,9.521,130.371,-21.423
-0.302,0.112,0.987,25.574,136.475,-44.373
-0.347,0.102,0.989,26.306,133.972,-48.218
-0.421,0.071,0.934,14.343,124.023,-31.799
-0.503,0.008,0.861,-0.732,109.375,-3.418
-0.569,-0.025,0.798,-13.672,92.285,25.818
-0.607,-0.021,0.769,-20.813,75.134,46.692
-0.665,-0.058,0.742,-20.081,57.007,53.528
-0.682,-0.073,0.733,-13.977,37.598,45.166
-0.741,-0.120,0.730,-4.395,14.771,34.790
-0.766,-0.139,0.766,4.944,-8.667,25.940
-0.748,-0.137,0.875,13.794,-31.677,23.865
-0.672,-0.014,0.981,19.409,-51.758,26.978
-0.531,0.095,1.074,18.066,-67.261,29.968
-0.372,0.096,1.137,10.620,-78.857,28.870
-0.234,0.067,1.195,-1.465,-80.933,26.062
-0.111,0.007,1.232,-13.977,-71.045,23.560
-0.021,-0.098,1.209,-23.987,-51.758,22.888
-0.003,-0.202,1.135,-30.151,-31.433,21.790
-0.086,-0.312,1.035,-29.175,-16.541,20.935
-0.199,-0.376,0.942,-22.827,-6.470,21.790
-0.278,-0.396,0.867,-12.268,-1.282,22.217
-0.324,-0.388,0.819,2.686,-1.099,19.348
-0.329,-0.376,0.803,20.325,-4.578,13.794
-0.317,-0.392,0.806,34.607,-10.132,8.362
-0.333,-0.414,0.833,41.016,-18.066,5.493
-0.363,-0.380,0.883,41.077,-25.452,7.385
-0.345,-0.312,0.947,35.278,-29.053,14.648
-0.269,-0.267,0.988,24.658,-29.541,22.034
-0.217,-0.282,1.021,14.465,-30.579,23.865
-0.171,-0.351,1.011,8.423,-31.616,23.560
-0.131,-0.415,1.004,6.470,-28.992,26.489
-0.143,-0.430,0.995,8.301,-24.597,31.494
-0.172,-0.403,0.970,12.268,-20.142,36.682
-0.208,-0.376,0.967,16.785,-17.822,40.405
-0.264,-0.343,0.970,19.958,-19.897,44.128
-0.306,-0.293,0.951,21.118,-26.062,48.523
-0.332,-0.283,0.942,20.142,-36.316,55.176
-0.351,-0.289,0.908,15.869,-49.500,65.002
-0.385,-0.330,0.840,13.123,-65.308,76.599
-0.472,-0.378,0.798,14.282,-82.031,89.417
-0.541,-0.367,0.779,16.785,-94.849,102.844
-0.522,-0.362,0.726,24.475,-104.553,114.136
-0.470,-0.396,0.681,36.377,-114.136,119.019
-0.466,-0.388,0.646,54.871,-125.305,112.427
-0.520,-0.431,0.675,82.336,-137.878,94.727
-0.665,-0.454,0.750,107.605,-152.039,73.975
-0.813,-0.500,0.788,124.451,-167.847,62.927
-0.896,-0.523,0.796,136.475,-183.716,70.190
-0.927,-0.497,0.810,140.686,-201.599,90.088
-1.026,-0.429,0.796,139.099,-229.065,112.427
-1.172,-0.364,0.802,129.944,-261.597,132.874
-1.339,-0.280,0.791,111.694,-292.664,150.269
-1.413,-0.281,0.687,92.712,-318.115,159.058
-1.436,-0.191,0.630,78.674,-335.022,156.433
-1.453,-0.046,0.621,70.374,-344.849,137.939
-1.486,0.071,0.631,68.420,-347.168,113.220
-1.445,0.316,0.722,62.195,-335.815,91.064
-1.232,0.527,0.896,44.678,-314.270,69.031
-1.227,0.599,0.973,10.132,-297.363,39.246
-1.311,0.683,0.988,-44.250,-291.260,6.470
-1.442,0.427,0.952,-80.078,-286.499,-43.518
-1.669,0.053,0.854,-88.745,-283.569,-120.544
-1.768,-0.013,0.826,-113.342,-279.602,-175.781
-1.806,-0.123,0.747,-126.465,-286.316,-207.397
-1.878,-0.240,0.643,-131.592,-301.086,-215.454

-2.022,-0.276,0.441,-152.039,-331.787,-204.590
-2.014,-0.249,0.425,-141.296,-335.632,-206.543
-1.951,-0.179,0.448,-122.192,-327.271,-214.783
-1.897,-0.062,0.478,-102.722,-310.242,-226.135
-1.918,-0.092,0.455,-85.388,-287.537,-238.159
-1.946,-0.102,0.350,-70.435,-257.874,-254.150
-2.066,-0.093,0.221,-52.979,-229.614,-274.780
-2.224,-0.101,0.110,-29.846,-207.397,-294.434
-2.371,-0.001,0.067,-10.498,-191.284,-311.829
-2.467,0.123,0.041,0.793,-182.861,-323.059
-2.496,0.177,0.084,1.221,-183.167,-328.369
-2.463,0.111,0.167,-7.935,-188.599,-330.017
-2.450,0.101,0.196,-15.686,-195.923,-330.505
-2.406,0.103,0.256,-20.203,-205.566,-330.078
-2.272,0.103,0.294,-29.236,-213.501,-327.454
-2.207,0.080,0.311,-41.138,-217.590,-326.477
-2.262,0.055,0.293,-44.678,-213.379,-331.665
-2.250,0.056,0.270,-36.621,-200.073,-339.111
-2.159,0.119,0.288,-24.048,-184.509,-341.492
-2.133,0.104,0.326,-15.442,-172.852,-347.412
-2.030,0.096,0.367,-10.193,-160.095,-356.750
-1.973,0.112,0.445,-5.676,-153.748,-359.741
-1.811,0.100,0.549,-4.883,-150.330,-353.699
-1.560,0.137,0.660,-15.625,-144.165,-340.637
-1.399,0.117,0.724,-31.982,-134.460,-326.294
-1.355,0.306,0.732,-42.725,-119.690,-320.618
-1.307,0.407,0.707,-42.053,-99.915,-326.355
-1.327,0.466,0.650,-43.152,-81.970,-339.355
-1.342,0.473,0.552,-50.598,-69.519,-353.271
-1.388,0.453,0.484,-61.890,-62.134,-365.784
-1.389,0.428,0.429,-73.975,-57.678,-375.427
-1.393,0.408,0.360,-84.717,-59.082,-378.723
-1.361,0.235,0.213,-95.154,-67.322,-371.887
-1.291,0.115,0.136,-106.873,-79.529,-364.380
-1.176,0.159,0.125,-118.042,-93.018,-355.103
-1.008,0.179,0.140,-126.038,-100.647,-332.458
-0.845,0.052,0.140,-125.732,-102.173,-309.448
-0.666,-0.026,0.115,-119.080,-97.290,-298.157
-0.579,0.016,0.083,-106.079,-89.172,-292.969
-0.491,-0.050,-0.000,-93.018,-80.139,-284.424
-0.423,-0.114,-0.107,-87.524,-74.036,-279.968
-0.326,-0.261,-0.185,-78.247,-71.655,-280.273
-0.199,-0.464,-0.283,-58.777,-72.571,-279.419
-0.029,-0.550,-0.321,-32.532,-73.486,-276.611
0.174,-0.590,-0.284,-5.432,-71.167,-264.771
0.356,-0.575,-0.205,13.123,-64.697,-239.807
0.517,-0.480,-0.137,18.555,-53.223,-207.214
0.658,-0.414,-0.138,12.756,-36.621,-178.589
0.768,-0.381,-0.141,4.578,-18.555,-167.297
0.797,-0.331,-0.154,3.845,-2.563,-166.138
0.862,-0.353,-0.231,7.996,13.916,-163.147
0.866,-0.419,-0.339,10.376,23.254,-162.231
0.768,-0.503,-0.471,13.000,21.851,-162.048
0.730,-0.609,-0.590,19.348,16.296,-157.043
0.782,-0.709,-0.649,24.292,10.803,-142.944
0.836,-0.731,-0.680,24.292,3.418,-121.399
0.852,-0.737,-0.655,24.414,-5.188,-96.863
0.900,-0.665,-0.627,23.926,-9.583,-71.960
0.915,-0.557,-0.594,22.644,-9.521,-48.950
0.871,-0.427,-0.564,20.020,-7.263,-29.724
0.856,-0.278,-0.547,17.334,-3.967,-14.343
0.842,-0.161,-0.544,12.817,0.061,-5.432
0.793,-0.092,-0.588,10.376,2.380,-5.554
0.738,-0.092,-0.627,10.254,2.014,-6.531
0.726,-0.074,-0.654,8.606,-0.549,-2.075
0.750,-0.038,-0.656,6.653,-3.174,7.019
0.757,0.011,-0.648,7.080,-5.249,15.076
0.765,0.054,-0.632,10.498,-7.019,20.142
0.769,0.066,-0.626,12.756,-10.010,24.841
0.749,0.069,-0.619,14.404,-13.977,31.311
0.777,0.113,-0.582,16.846,-17.639,40.405
0.731,0.159,-0.573,17.700,-21.729,54.810
0.744,0.260,-0.542,16.663,-21.973,64.758
0.719,0.320,-0.534,19.104,-21.729,66.711
0.724,0.332,-0.532,22.522,-19.714,64.087
0.740,0.289,-0.549,25.635,-15.198,57.312
0.736,0.192,-0.574,32.227,-9.949,50.476
0.737,0.079,-0.601,41.443,-4.761,47.241
0.752,-0.071,-0.632,52.551,2.319,49.194
0.792,-0.228,-0.653,64.575,10.925,54.321
0.813,-0.402,-0.667,78.674,19.348,59.631
0.863,-0.513,-0.664,93.506,27.466,67.200
0.932,-0.621,-0.655,111.206,33.142,79.224
0.924,-0.719,-0.607,130.432,32.776,94.543
0.843,-0.766,-0.528,148.193,28.381,113.464
0.714,-0.737,-0.412,164.124,22.034,136.780
0.620,-0.627,-0.291,172.607,18.494,165.894
0.591,-0.476,-0.191,169.922,23.376,195.618
0.556,-0.339,-0.104,166.870,33.936,214.783
0.503,-0.278,-0.024,165.588,51.758,220.520
0.412,-0.282,-0.008,162.231,75.439,211.487
0.312,-0.351,-0.038,166.443,101.013,192.993
0.184,-0.518,-0.086,180.603,120.789,176.880
0.017,-0.697,-0.098,197.693,133.667,170.349
-0.207,-0.857,-0.061,219.482,141.052,171.936
-0.450,-0.943,-0.030,246.521,140.869,182.983
-0.670,-0.925,0.024,277.283,132.019,202.942
-0.856,-0.783,0.197,310.364,115.173,227.356
-1.010,-0.526,0.417,336.121,95.276,255.127
-1.064,-0.181,0.642,343.079,81.848,278.076
-1.191,0.118,0.790,340.820,66.467,290.955
-1.298,0.353,0.886,331.360,51.270,298.401
-1.360,0.563,0.886,304.321,38.757,300.171
-1.414,0.645,0.810,262.878,22.644,297.241
-1.464,0.585,0.742,221.191,2.136,289.368
-1.547,0.411,0.756,188.599,-22.217,281.982
-1.608,0.239,0.758,166.199,-46.631,282.166
-1.584,0.091,0.806,160.828,-63.232,288.757
-1.567,0.116,1.012,174.988,-70.313,295.227
-1.508,0.276,1.196,199.341,-65.369,303.406
-1.414,0.355,1.325,219.360,-50.781,309.875
-1.428,0.404,1.418,235.901,-35.706,304.382
-1.474,0.445,1.472,253.052,-21.057,287.720
-1.451,0.463,1.545,265.503,-3.723,267.334
-1.426,0.638,1.621,270.569,11.841,247.559
-1.499,0.726,1.652,263.550,20.447,237.549
-1.561,0.766,1.588,242.310,26.123,231.323
-1.604,0.767,1.510,218.567,25.818,219.421
-1.667,0.663,1.452,200.500,13.184,208.679

-1.597,0.372,1.398,169.006,-19.470,219.788
-1.489,0.261,1.442,163.330,-29.297,234.253
-1.350,0.343,1.548,163.025,-27.466,246.460
-1.155,0.481,1.648,163.086,-7.324,253.662
-1.007,0.458,1.714,172.302,24.353,245.178
-0.953,0.505,1.753,183.716,56.274,218.140
-0.925,0.481,1.792,185.181,84.778,181.946
-0.961,0.547,1.725,181.885,106.873,152.588
-1.076,0.541,1.676,172.852,108.887,146.179
-1.194,0.643,1.641,150.879,101.257,151.917
-1.353,0.727,1.545,117.554,80.200,172.729
-1.407,0.781,1.473,75.012,57.983,194.336
-1.305,0.763,1.443,32.227,42.358,208.862
-1.140,0.687,1.429,0.732,33.508,210.266
-0.990,0.585,1.404,-20.874,34.912,205.933
-0.904,0.500,1.343,-36.743,46.753,200.195
-0.831,0.363,1.266,-45.410,68.298,191.223
-0.775,0.264,1.181,-47.913,95.337,174.622
-0.769,0.167,1.086,-43.762,123.779,152.222
-0.839,0.057,1.002,-36.133,150.452,130.066
-0.979,-0.019,0.880,-28.381,171.143,111.084
-1.088,-0.098,0.786,-20.142,182.922,96.069
-1.233,-0.199,0.691,-13.489,185.730,90.332
-1.319,-0.247,0.586,-10.437,184.326,93.018
-1.448,-0.270,0.483,-10.071,178.406,105.713
-1.561,-0.173,0.355,-10.193,166.321,123.901
-1.597,-0.107,0.248,-15.869,146.912,139.221
-1.597,-0.073,0.185,-27.039,121.704,153.687
-1.625,-0.006,0.099,-37.903,96.863,163.391
-1.600,0.102,0.063,-36.987,79.224,161.011
-1.610,0.135,0.063,-21.179,70.068,146.912
-1.713,0.182,0.125,5.066,64.453,117.310
-1.755,0.365,0.176,48.889,60.913,73.364
-1.776,0.571,0.335,98.083,59.631,25.757
-1.682,0.793,0.482,132.690,47.668,-23.743
-1.256,0.688,0.734,135.071,30.029,-74.219
-0.814,0.401,0.969,95.886,7.446,-108.093
-0.519,0.070,1.067,33.325,-21.301,-110.107
-0.340,-0.312,1.077,-27.039,-48.462,-78.308
-0.181,-0.569,1.034,-71.411,-62.622,-31.067
-0.052,-0.747,0.946,-89.783,-63.965,5.676
-0.009,-0.898,0.835,-83.923,-55.481,22.400
-0.066,-0.940,0.698,-62.195,-38.513,19.714
-0.223,-0.888,0.573,-28.809,-18.860,5.737
-0.367,-0.834,0.516,9.644,-2.441,-9.827
-0.475,-0.686,0.519,47.607,6.470,-25.085
-0.604,-0.536,0.564,78.491,2.930,-34.119
-0.687,-0.401,0.635,94.910,-7.263,-35.583
-0.704,-0.313,0.725,94.360,-21.179,-26.794
-0.731,-0.259,0.775,81.543,-42.969,-11.108
-0.806,-0.267,0.786,63.049,-70.923,7.629
-0.906,-0.399,0.703,41.138,-102.905,32.471
-1.064,-0.494,0.593,20.142,-134.033,63.904
-1.142,-0.545,0.507,13.245,-162.170,93.140
-1.174,-0.562,0.471,22.583,-187.256,113.342
-1.267,-0.523,0.443,38.513,-208.191,123.901
-1.316,-0.427,0.489,58.044,-216.248,123.474
-1.302,-0.182,0.569,78.613,-215.210,110.535
-1.277,0.064,0.725,96.252,-215.393,90.942
-1.285,0.299,0.969,100.098,-213.440,71.838
-1.273,0.522,1.135,83.740,-208.374,52.124
-1.311,0.614,1.185,47.791,-202.026,30.029
-1.433,0.607,1.129,0.610,-194.397,-2.136
-1.528,0.498,0.986,-43.213,-190.796,-45.044
-1.748,0.267,0.869,-72.754,-194.641,-90.393
-1.862,0.074,0.736,-91.858,-197.632,-129.883
-1.893,-0.110,0.679,-102.112,-196.716,-156.067
-1.913,-0.262,0.630,-100.708,-198.242,-168.091
-1.906,-0.314,0.594,-93.994,-202.209,-167.419
-1.918,-0.267,0.622,-83.984,-209.839,-157.288
-1.973,-0.130,0.687,-74.097,-217.896,-143.677
-1.942,0.095,0.722,-70.007,-219.055,-132.690
-1.896,0.208,0.750,-68.420,-217.163,-131.775
-1.914,0.241,0.738,-64.270,-212.585,-145.203
-1.933,0.292,0.704,-61.707,-203.857,-168.457
-1.961,0.356,0.700,-66.528,-195.129,-190.613
-2.006,0.433,0.740,-71.167,-186.707,-207.458
-2.011,0.463,0.754,-69.702,-175.964,-220.764
-2.019,0.469,0.750,-66.895,-166.260,-234.253
-2.057,0.485,0.725,-70.740,-162.659,-247.314
-2.063,0.472,0.737,-80.017,-162.292,-259.888
-2.083,0.424,0.694,-91.064,-161.316,-268.250
-2.190,0.423,0.601,-96.191,-159.363,-276.978
-2.303,0.482,0.524,-92.773,-156.311,-292.053
-2.288,0.512,0.523,-86.609,-151.733,-311.768
-2.238,0.523,0.533,-89.966,-147.400,-329.285
-2.235,0.476,0.533,-103.333,-148.193,-344.238
-2.227,0.451,0.530,-115.540,-148.437,-359.070
-2.192,0.441,0.557,-120.972,-147.766,-376.587
-2.163,0.449,0.617,-121.155,-149.475,-392.639
-2.095,0.390,0.679,-126.526,-151.062,-401.917
-2.035,0.338,0.722,-141.968,-151.123,-405.029
-2.002,0.265,0.757,-157.715,-147.339,-406.921
-1.964,0.177,0.753,-163.574,-138.245,-411.804
-1.970,0.165,0.724,-159.119,-128.296,-419.067
-1.968,0.194,0.718,-148.621,-119.263,-423.035
-1.923,0.225,0.712,-145.691,-114.319,-419.983
-1.860,0.204,0.706,-157.959,-113.281,-408.813
-1.753,0.191,0.735,-178.162,-112.854,-397.461
-1.589,0.134,0.763,-194.214,-110.291,-393.494
-1.412,0.034,0.790,-200.928,-108.643,-396.973
-1.181,-0.120,0.805,-199.646,-106.323,-397.644
-0.977,-0.219,0.801,-192.871,-99.731,-393.127
-0.793,-0.307,0.745,-185.730,-90.820,-381.531
-0.674,-0.436,0.639,-179.199,-83.008,-366.089
-0.608,-0.470,0.515,-164.368,-77.637,-351.501
-0.556,-0.447,0.430,-142.639,-72.021,-331.116
-0.446,-0.440,0.328,-125.671,-63.782,-306.030
-0.318,-0.415,0.215,-114.197,-55.786,-285.217
-0.225,-0.399,0.081,-100.525,-49.744,-270.996
-0.071,-0.389,-0.023,-84.900,-40.527,-258.240
0.063,-0.362,-0.133,-71.045,-27.283,-246.399
0.103,-0.264,-0.246,-60.364,-16.113,-234.802
0.132,-0.247,-0.364,-51.575,-7.446,-218.384
0.196,-0.318,-0.522,-48.035,0.427,-204.895
0.235,-0.365,-0.673,-40.466,4.395,-199.646
0.232,-0.416,-0.736,-23.132,0.122,-200.073
0.241,-0.483,-0.782,-3.235,-5.554,-196.411
0.340,-0.530,-0.785,14.404,-8.423,-186.890

-1.234,0.570,0.891,165.222,109.680,207.947
-1.351,0.521,0.831,155.762,102.966,206.055
-1.417,0.438,0.781,146.606,88.867,206.421
-1.384,0.323,0.750,142.029,71.899,210.266
-1.317,0.188,0.778,142.395,56.396,218.750
-1.285,0.096,0.832,144.592,45.654,230.042
-1.242,0.104,0.978,146.362,44.495,241.760
-1.174,0.263,1.133,153.992,57.495,250.793
-1.166,0.382,1.186,158.203,76.843,256.958
-1.112,0.351,1.253,158.508,99.731,251.465
-1.347,0.553,1.253,156.799,109.863,230.408
-1.363,0.417,1.215,157.898,127.930,208.740
-1.432,0.424,1.128,146.729,136.353,190.125
-1.427,0.340,1.114,149.353,138.672,168.701
-1.296,0.231,1.180,150.757,140.015,156.128
-1.309,0.180,1.184,143.250,136.353,164.795
-1.306,0.205,1.222,136.475,135.864,169.739
-1.370,0.314,1.224,129.456,137.024,174.561
-1.457,0.379,1.188,119.080,132.996,177.185
-1.555,0.418,1.172,101.318,124.390,176.758
-1.643,0.462,1.090,81.848,111.755,174.622
-1.657,0.425,1.030,61.279,97.168,174.866
-1.601,0.339,0.984,34.607,81.238,179.810
-1.528,0.240,0.945,13.000,68.420,187.561
-1.412,0.147,0.918,1.892,65.674,192.810
-1.306,0.089,0.916,1.953,72.327,191.467
-1.214,0.072,0.915,10.925,87.952,182.190
-1.165,0.068,0.913,23.926,108.582,166.931
-1.186,0.067,0.885,33.813,126.221,148.010
-1.284,0.091,0.835,40.649,136.230,126.465
-1.363,0.149,0.732,42.847,137.207,110.474
-1.312,0.136,0.696,36.743,130.859,103.638
-1.384,0.083,0.571,20.508,117.676,109.619
-1.425,-0.018,0.434,-1.709,106.812,119.568
-1.452,-0.064,0.293,-24.536,93.384,119.507
-1.456,-0.147,0.180,-35.767,77.881,116.516
-1.474,-0.208,0.100,-32.776,62.683,112.671
-1.495,-0.213,0.065,-19.531,49.011,108.459
-1.508,-0.235,0.076,0.732,37.109,103.333
-1.530,-0.204,0.136,29.846,28.748,92.407
-1.470,-0.003,0.279,67.688,25.085,72.815
-1.325,0.244,0.464,102.356,23.010,52.246
-1.117,0.430,0.627,122.314,15.869,31.799
-0.982,0.402,0.858,121.643,5.920,9.705
-0.890,0.401,0.948,100.830,-1.648,-10.559
-0.790,0.305,0.988,67.444,-5.493,-27.954
-0.656,0.125,0.964,29.785,-9.460,-39.307
-0.600,-0.088,0.916,-1.587,-17.395,-41.443
-0.564,-0.284,0.854,-21.973,-25.513,-38.696
-0.507,-0.459,0.803,-34.424,-30.396,-33.691
-0.436,-0.586,0.754,-41.443,-31.982,-26.672
-0.390,-0.711,0.710,-41.748,-30.701,-16.052
-0.376,-0.773,0.680,-32.227,-26.611,-4.944
-0.381,-0.780,0.662,-13.672,-19.165,2.625
-0.428,-0.751,0.669,11.292,-10.620,5.310
-0.513,-0.666,0.670,38.574,-3.540,2.075
-0.596,-0.566,0.681,62.012,2.625,-1.526
-0.664,-0.493,0.678,77.087,5.005,-2.441
-0.726,-0.423,0.679,84.167,1.343,0.427
-0.793,-0.382,0.664,84.229,-7.324,7.751
-0.866,-0.370,0.645,80.750,-18.921,17.090
-0.929,-0.368,0.606,77.820,-30.579,24.414
-0.976,-0.359,0.576,78.735,-40.710,29.053
-0.985,-0.333,0.554,82.458,-49.133,31.311
-1.009,-0.280,0.557,86.182,-56.763,31.433
-1.233,-0.315,0.665,85.632,-64.941,31.128
-1.240,-0.245,0.601,70.435,-68.604,34.729
-1.158,-0.020,0.487,43.518,-67.261,57.800
-1.297,-0.024,0.429,26.733,-89.478,69.946
-1.396,0.019,0.315,21.729,-116.333,62.744
-1.448,0.033,0.287,18.921,-144.348,47.363
-1.433,0.053,0.391,2.930,-175.354,22.034
-1.461,0.048,0.547,-6.409,-199.646,-2.991
-1.436,0.020,0.661,-14.648,-215.088,-22.156
-1.359,0.020,0.746,-29.663,-217.773,-30.334
-1.357,-0.011,0.762,-38.452,-215.271,-38.879
-1.402,0.037,0.772,-41.443,-209.351,-51.147
-1.435,0.103,0.823,-41.992,-201.233,-66.895
-1.496,0.185,0.932,-42.786,-190.857,-84.595
-1.572,0.292,1.007,-50.781,-183.594,-102.966
-1.655,0.339,1.100,-65.063,-181.152,-119.995
-1.749,0.388,1.171,-85.327,-183.899,-133.057
-1.828,0.433,1.265,-110.962,-188.782,-141.907
-1.895,0.511,1.389,-142.151,-194.153,-148.560
-1.946,0.589,1.521,-175.903,-193.115,-156.677
-1.905,0.549,1.559,-200.623,-180.542,-174.622
-1.874,0.469,1.520,-220.093,-168.518,-202.332
-1.988,0.266,1.459,-232.239,-163.574,-236.755
-2.112,0.059,1.350,-236.572,-155.945,-269.165
-2.138,0.010,1.240,-240.601,-144.165,-283.508
-2.102,0.022,1.177,-241.333,-137.146,-276.367
-2.098,0.092,1.111,-238.953,-139.221,-259.827
-2.128,0.187,1.124,-237.366,-143.372,-248.718
-2.169,0.356,1.120,-240.173,-146.362,-245.300
-2.146,0.506,1.142,-248.474,-146.973,-245.728
-2.097,0.611,1.172,-262.268,-145.630,-249.878
-2.089,0.638,1.170,-276.978,-144.897,-259.338
-2.107,0.562,1.139,-294.250,-146.606,-272.705
-2.171,0.412,1.016,-313.110,-151.917,-286.926
-2.257,0.193,0.862,-323.975,-158.630,-300.232
-2.399,-0.030,0.640,-321.289,-166.992,-316.833
-2.475,-0.111,0.448,-305.908,-173.523,-335.266
-2.372,-0.089,0.359,-285.217,-171.326,-343.811
-2.212,-0.040,0.340,-261.414,-171.326,-338.196
-2.103,0.036,0.333,-240.173,-177.185,-322.937
-2.003,0.096,0.346,-231.689,-183.899,-306.580
-1.885,0.107,0.373,-233.521,-190.247,-294.800
-1.757,0.092,0.378,-235.596,-195.129,-288.208
-1.577,-0.020,0.333,-236.206,-194.458,-286.316
-1.442,-0.123,0.284,-231.201,-191.162,-292.236
-1.281,-0.225,0.264,-204.346,-183.899,-307.617
-1.165,-0.272,0.247,-174.683,-175.720,-320.435
-1.110,-0.284,0.185,-158.691,-166.260,-318.970
-1.089,-0.315,0.070,-152.649,-157.104,-306.885
-1.101,-0.365,-0.010,-143.738,-153.137,-297.302
-1.109,-0.399,-0.110,-131.714,-152.649,-289.001
-1.136,-0.523,-0.287,-120.789,-154.541,-276.550
-1.045,-0.638,-0.419,-106.995,-157.410,-268.982
-0.879,-0.683,-0.436,-85.144,-165.466,-261.108

-1.874,0.262,0.591,187.500,13.611,339.111
-1.928,0.270,0.562,175.415,-0.549,351.685
-1.914,0.287,0.630,171.814,-15.991,362.244
-1.778,0.322,0.809,171.143,-23.010,369.507
-1.460,0.343,1.042,169.250,-11.536,367.798
-1.221,0.371,1.334,177.612,11.292,355.652
-1.089,0.296,1.607,194.153,48.828,337.402
-1.053,0.318,1.816,215.027,102.234,306.519
-1.096,0.480,1.822,235.107,145.874,263.794
-1.394,0.488,1.676,237.244,163.330,233.704
-1.767,0.503,1.495,223.328,161.926,221.863
-2.032,0.554,1.268,202.454,147.278,219.666
-2.081,0.568,1.078,177.002,124.695,222.839
-2.018,0.574,1.019,147.217,95.764,226.501
-1.831,0.490,1.039,121.033,67.566,229.492
-1.624,0.429,1.117,100.586,47.729,233.215
-1.393,0.357,1.183,82.947,45.105,238.647
-1.146,0.247,1.301,73.608,59.692,240.784
-0.988,0.111,1.353,72.998,81.726,230.408
-0.869,0.065,1.433,84.656,114.319,198.669
-0.885,-0.007,1.499,104.919,147.339,169.922
-1.004,0.022,1.513,121.399,176.636,151.672
-1.246,0.070,1.439,127.930,193.420,145.508
-1.516,0.139,1.343,125.549,198.242,144.409
-1.654,0.195,1.276,118.225,193.481,141.296
-1.724,0.291,1.220,107.727,180.054,136.841
-1.680,0.332,1.199,90.881,165.894,138.245
-1.587,0.333,1.183,67.261,151.428,142.883
-1.528,0.328,1.159,39.978,135.559,148.254
-1.443,0.253,1.105,12.146,123.962,153.870
-1.375,0.158,1.062,-11.780,117.371,153.320
-1.299,0.051,0.969,-27.588,115.601,147.217
-1.224,0.009,0.888,-34.729,119.202,138.184
-1.243,-0.119,0.762,-36.194,124.634,133.545
-1.253,-0.133,0.651,-32.654,134.888,121.765
-1.292,-0.080,0.562,-23.254,143.494,108.032
-1.352,-0.026,0.496,-12.817,144.897,97.778
-1.406,-0.032,0.417,-8.301,140.442,91.797
-1.456,-0.024,0.366,-7.751,133.667,87.830
-1.537,-0.006,0.330,-2.869,122.925,80.566
-1.629,0.069,0.349,9.827,106.995,68.359
-1.603,0.144,0.379,27.100,88.318,55.420
-1.469,0.276,0.488,42.969,67.871,39.856
-1.350,0.356,0.596,52.429,45.166,28.687
-1.221,0.439,0.705,52.063,21.790,17.273
-1.000,0.349,0.798,38.086,1.099,6.714
-0.763,0.175,0.897,15.320,-12.695,-4.578
-0.568,0.014,0.959,-1.465,-23.865,-15.747
-0.413,-0.161,0.996,-10.803,-27.954,-21.729
-0.247,-0.292,1.033,-13.428,-20.874,-25.696
-0.128,-0.390,1.049,-10.437,-8.667,-31.494
-0.108,-0.451,1.035,-4.333,1.404,-37.964
-0.197,-0.478,0.949,1.587,7.385,-41.626
-0.328,-0.495,0.868,5.798,11.047,-39.612
-0.410,-0.474,0.790,5.432,13.794,-29.724
-0.474,-0.471,0.725,3.845,12.573,-15.381
-0.529,-0.452,0.680,5.981,6.226,-4.639
-0.571,-0.413,0.670,12.573,-3.296,1.221
-0.627,-0.397,0.689,21.484,-14.404,3.967
-0.689,-0.354,0.701,30.457,-27.466,3.967
-0.713,-0.343,0.713,36.133,-39.612,7.751
-0.733,-0.382,0.709,36.926,-50.781,17.212
-0.763,-0.410,0.661,36.621,-62.744,27.466
-0.801,-0.466,0.584,41.687,-74.829,35.645
-0.866,-0.522,0.526,58.655,-84.045,37.842
-0.961,-0.499,0.515,87.524,-86.243,31.128
-0.996,-0.412,0.522,121.765,-82.031,13.184
-1.021,-0.330,0.550,151.184,-78.369,-11.353
-1.038,-0.240,0.595,169.739,-77.820,-31.006
-1.071,-0.130,0.625,172.974,-80.017,-37.659
-1.170,-0.022,0.639,161.987,-87.036,-34.668
-1.256,0.066,0.657,140.320,-97.168,-30.151
-1.314,0.106,0.691,112.915,-110.107,-28.931
-1.355,0.128,0.729,85.632,-127.197,-34.241
-1.364,0.159,0.802,58.899,-144.104,-41.626
-1.340,0.212,0.869,29.480,-158.569,-46.509
-1.312,0.213,0.959,-1.038,-170.349,-50.659
-1.274,0.161,1.049,-30.457,-179.199,-59.204
-1.279,0.113,1.119,-56.396,-185.913,-73.914
-1.305,0.060,1.175,-73.914,-187.744,-90.881
-1.326,0.062,1.256,-82.581,-184.631,-107.117
-1.326,0.124,1.347,-89.661,-179.687,-120.300
-1.348,0.179,1.476,-98.389,-174.988,-128.662
-1.426,0.264,1.566,-110.657,-171.631,-135.498
-1.565,0.375,1.614,-125.488,-166.748,-142.334
-1.690,0.475,1.632,-141.174,-160.889,-150.024
-1.750,0.537,1.645,-158.691,-152.771,-159.729
-1.798,0.551,1.631,-178.162,-144.043,-173.767
-1.834,0.462,1.589,-194.885,-134.094,-197.876
-1.918,0.339,1.500,-201.721,-127.441,-225.342
-2.009,0.216,1.415,-202.759,-125.305,-250.671
-2.067,0.128,1.343,-205.017,-122.437,-264.832
-2.067,0.092,1.305,-209.045,-119.446,-267.395
-2.055,0.135,1.306,-212.402,-116.150,-262.573
-2.064,0.209,1.300,-213.501,-114.746,-258.484
-2.042,0.251,1.292,-216.614,-114.990,-259.705
-2.023,0.263,1.277,-223.755,-117.798,-265.076
-1.998,0.249,1.282,-231.567,-120.728,-269.836
-1.923,0.248,1.302,-238.953,-120.667,-275.208
-1.847,0.194,1.291,-243.713,-120.850,-281.555
-1.847,0.152,1.252,-244.751,-123.169,-287.964
-1.837,0.162,1.207,-243.469,-122.131,-292.725
-1.825,0.158,1.177,-242.249,-118.408,-295.349
-1.850,0.217,1.119,-240.906,-114.441,-297.974
-1.913,0.289,1.037,-241.089,-111.328,-299.927
-1.946,0.384,0.984,-243.896,-107.910,-304.260
-1.929,0.394,0.932,-248.962,-106.445,-312.195
-1.908,0.341,0.890,-257.385,-107.910,-319.397
-1.859,0.272,0.804,-265.747,-109.985,-322.815
-1.764,0.140,0.738,-267.761,-111.816,-326.416
-1.660,0.069,0.655,-263.306,-114.502,-331.421
-1.594,0.032,0.577,-254.700,-117.004,-331.238
-1.532,0.027,0.505,-245.056,-119.568,-324.097
-1.476,0.002,0.421,-235.535,-121.582,-312.866
-1.388,-0.050,0.321,-229.309,-122.986,-301.941
-1.275,-0.020,0.290,-220.764,-122.925,-299.438
-1.180,-0.072,0.231,-205.505,-121.521,-300.720
-1.099,-0.124,0.162,-192.993,-117.188,-301.025
-0.987,-0.118,0.122,-180.847,-109.436,-302.612

-1.260,0.417,1.137,215.698,-23.376,291.809
-1.152,0.408,1.268,217.407,-10.803,282.043
-1.107,0.420,1.370,217.285,4.761,268.921
-1.116,0.417,1.390,215.149,22.278,257.507
-1.187,0.388,1.374,211.182,37.903,245.850
-1.292,0.446,1.347,208.252,46.509,230.530
-1.413,0.464,1.311,201.660,45.471,219.910
-1.468,0.424,1.244,186.646,38.086,216.492
-1.438,0.346,1.187,168.823,28.503,216.064
-1.371,0.248,1.178,156.250,18.799,217.407
-1.294,0.180,1.218,151.001,12.146,220.825
-1.228,0.142,1.279,149.414,13.672,225.403
-1.170,0.176,1.365,150.330,25.513,225.891
-1.110,0.299,1.469,154.724,47.791,220.764
-1.083,0.355,1.518,159.424,75.256,208.496
-1.153,0.374,1.506,162.903,98.694,187.256
-1.240,0.350,1.464,168.823,114.014,161.011
-1.290,0.268,1.433,174.377,119.751,141.113
-1.276,0.208,1.427,176.514,119.751,132.812
-1.251,0.195,1.426,175.842,116.455,133.850
-1.129,0.168,1.505,173.401,111.023,140.442
-1.244,0.149,1.455,165.405,99.487,151.550
-1.102,0.172,1.498,154.236,99.609,159.607
-1.002,0.174,1.534,147.461,100.281,161.804
-0.964,0.134,1.551,142.334,101.563,163.574
-0.867,0.169,1.578,131.104,112.122,163.513
-0.812,0.140,1.557,121.521,125.122,157.410
-0.810,0.044,1.509,116.211,138.489,143.799
-0.835,0.004,1.432,114.075,151.550,126.953
-0.935,-0.069,1.332,113.464,157.776,116.455
-1.063,-0.096,1.205,108.582,157.349,114.319
-1.150,-0.128,1.117,101.135,150.330,118.652
-1.232,-0.114,1.032,89.050,135.681,127.930
-1.283,-0.096,0.954,70.007,120.117,144.043
-1.253,-0.077,0.914,44.922,106.506,160.217
-1.233,-0.097,0.853,22.461,93.018,169.617
-1.205,-0.104,0.821,9.827,85.388,170.837
-1.149,-0.173,0.794,6.531,83.252,165.955
-1.106,-0.245,0.768,9.827,86.243,156.128
-1.159,-0.241,0.712,23.071,92.590,142.883
-1.162,-0.180,0.718,45.288,100.220,126.343
-1.183,-0.047,0.748,66.406,99.426,105.896
-1.252,0.082,0.752,75.806,89.111,94.543
-1.337,0.183,0.742,71.777,74.646,90.454
-1.428,0.285,0.693,61.829,53.406,87.463
-1.474,0.330,0.666,51.392,27.527,83.008
-1.429,0.364,0.657,41.443,2.930,79.163
-1.269,0.362,0.705,33.875,-16.052,76.233
-1.080,0.349,0.783,29.114,-28.320,67.505
-0.911,0.361,0.866,29.907,-32.471,47.729
-0.719,0.350,0.969,34.424,-27.100,20.691
-0.511,0.215,1.031,36.743,-16.602,-10.254
-0.374,0.028,1.032,29.480,-4.578,-41.138
-0.315,-0.152,0.976,18.372,7.324,-65.491
-0.345,-0.353,0.882,11.902,15.808,-79.163
-0.396,-0.506,0.782,10.498,20.630,-85.083
-0.448,-0.594,0.677,10.376,22.827,-83.984
-0.517,-0.621,0.584,12.024,21.179,-76.172
-0.573,-0.595,0.519,19.043,13.855,-62.805
-0.666,-0.527,0.495,27.344,0.549,-46.875
-0.788,-0.414,0.491,34.058,-14.771,-32.227
-0.908,-0.282,0.508,37.720,-29.724,-20.569
-0.995,-0.149,0.536,35.889,-45.166,-12.024
-1.008,-0.090,0.567,28.076,-60.608,-6.653
-0.993,-0.112,0.590,17.639,-74.768,-6.348
-0.954,-0.174,0.640,12.939,-85.938,-14.282
-0.879,-0.274,0.688,18.127,-93.933,-29.114
-0.832,-0.376,0.745,28.625,-99.792,-42.053
-0.820,-0.416,0.750,35.522,-104.919,-46.692
-0.855,-0.422,0.730,36.560,-108.521,-42.480
-0.922,-0.387,0.724,35.339,-111.633,-36.560
-0.984,-0.305,0.739,34.973,-116.760,-34.668
-1.056,-0.210,0.760,32.471,-127.136,-34.790
-1.119,-0.177,0.783,21.301,-142.883,-32.166
-1.138,-0.184,0.810,1.892,-159.729,-25.391
-1.124,-0.205,0.848,-19.714,-173.218,-18.738
-1.106,-0.207,0.930,-38.574,-181.396,-16.357
-1.061,-0.125,1.038,-51.575,-181.763,-18.127
-1.004,-0.055,1.163,-55.359,-174.805,-23.437
-0.973,-0.001,1.281,-59.692,-163.147,-29.968
-1.010,-0.008,1.412,-69.031,-146.484,-38.879
-1.017,0.064,1.518,-80.200,-127.075,-51.147
-0.995,0.121,1.604,-89.905,-111.328,-64.819
-1.002,0.111,1.661,-101.685,-103.271,-77.087
-1.092,0.135,1.667,-120.728,-102.356,-90.637
-1.239,0.112,1.672,-140.747,-106.079,-105.591
-1.425,0.135,1.638,-158.752,-114.685,-121.948
-1.535,0.115,1.618,-172.302,-122.009,-132.263
-1.655,0.126,1.589,-192.444,-135.437,-133.728
-1.725,0.133,1.601,-217.896,-148.132,-130.920
-1.756,0.142,1.620,-239.807,-159.424,-132.507
-1.729,0.142,1.638,-252.625,-167.847,-141.418
-1.681,0.108,1.656,-259.827,-171.814,-155.701
-1.645,0.135,1.665,-266.357,-173.157,-172.913
-1.648,0.163,1.672,-273.926,-172.180,-187.500
-1.664,0.168,1.686,-282.654,-167.847,-198.181
-1.674,0.165,1.670,-294.067,-159.668,-209.290
-1.728,0.135,1.621,-305.115,-149.536,-224.792
-1.823,0.167,1.519,-308.838,-140.747,-246.704
-1.904,0.158,1.413,-306.396,-134.705,-265.564
-1.940,0.136,1.316,-306.824,-131.958,-277.100
-1.959,0.097,1.240,-308.472,-133.179,-283.142
-1.986,0.100,1.135,-307.861,-135.864,-282.776
-1.932,0.102,1.055,-303.894,-135.376,-280.457
-1.848,0.080,0.983,-297.119,-135.193,-283.386
-1.786,0.056,0.902,-285.889,-135.498,-289.978
-1.734,0.110,0.859,-272.644,-129.883,-299.683
-1.646,0.186,0.838,-257.751,-118.713,-310.547
-1.573,0.239,0.819,-243.652,-106.079,-317.566
-1.545,0.314,0.793,-235.474,-98.328,-320.068
-1.542,0.386,0.746,-237.122,-95.520,-316.895
-1.558,0.370,0.680,-246.887,-95.032,-310.425
-1.548,0.295,0.557,-253.174,-96.924,-308.472
-1.547,0.198,0.431,-250.244,-101.807,-313.660
-1.500,0.159,0.318,-239.319,-106.506,-324.036
-1.443,0.111,0.250,-223.755,-110.107,-332.458
-1.355,0.097,0.230,-209.412,-110.107,-331.970
-1.228,0.116,0.238,-199.341,-105.835,-323.547
-1.154,0.143,0.227,-197.449,-98.755,-309.570

-1.261,0.787,1.122,268.616,-12.024,313.171
-1.401,0.929,1.063,229.980,-11.047,326.233
-1.426,0.968,0.949,182.556,-6.348,317.688
-1.382,0.852,0.876,155.273,-2.808,287.476
-1.255,0.608,0.866,153.503,-1.404,251.526
-1.136,0.316,0.889,159.302,2.563,228.333
-1.054,0.027,0.932,167.236,13.062,219.421
-1.037,-0.088,1.011,185.181,28.503,218.323
-1.078,-0.055,1.122,212.769,43.091,222.229
-1.179,0.030,1.229,236.206,53.406,229.187
-1.277,0.242,1.336,247.498,62.927,232.239
-1.396,0.405,1.380,250.854,66.956,230.469
-1.561,0.487,1.337,242.310,62.622,227.966
-1.630,0.503,1.310,228.821,53.772,222.046
-1.578,0.518,1.355,215.088,42.908,216.553
-1.458,0.541,1.408,199.036,34.546,215.881
-1.342,0.488,1.453,181.580,32.715,215.027
-1.244,0.419,1.478,169.312,37.659,208.557
-1.187,0.341,1.507,165.405,46.265,199.341
-1.108,0.284,1.558,167.480,58.594,190.430
-1.023,0.196,1.627,172.729,74.463,182.251
-1.052,0.243,1.636,181.396,84.717,173.218
-1.043,0.177,1.645,189.575,97.778,168.518
-0.910,0.238,1.729,193.665,115.601,163.208
-0.900,0.309,1.745,195.374,124.146,160.095
-0.928,0.408,1.747,187.500,132.080,155.212
-1.038,0.500,1.664,169.800,133.057,154.175
-1.132,0.498,1.554,137.329,126.709,158.630
-1.137,0.454,1.432,93.201,118.469,164.246
-1.133,0.344,1.307,50.964,107.727,170.288
-1.131,0.197,1.197,16.907,97.961,175.964
-1.145,0.030,1.073,-7.629,92.102,179.199
-1.189,-0.147,0.957,-21.362,89.539,179.321
-1.200,-0.297,0.855,-26.184,92.407,180.786
-1.161,-0.415,0.751,-21.851,100.098,179.993
-1.179,-0.481,0.673,-5.371,109.375,175.476
-1.248,-0.469,0.638,23.010,117.371,167.114
-1.392,-0.364,0.610,54.321,123.047,156.677
-1.438,-0.202,0.682,80.811,127.686,143.921
-1.568,0.074,0.701,98.328,119.507,134.399
-1.571,0.239,0.736,96.619,103.394,136.047
-1.553,0.349,0.738,72.388,78.552,143.921
-1.586,0.439,0.691,38.513,49.438,154.175
-1.601,0.462,0.608,6.409,23.865,160.156
-1.610,0.450,0.523,-15.137,4.517,158.508
-1.678,0.468,0.456,-20.142,-7.385,145.142
-1.716,0.541,0.442,-6.836,-13.855,116.699
-1.625,0.684,0.513,18.494,-15.442,76.538
-1.412,0.749,0.609,38.391,-15.442,33.325
-1.120,0.591,0.743,38.208,-17.883,-10.315
-0.870,0.324,0.849,23.193,-23.193,-51.453
-0.610,-0.024,0.914,4.333,-29.724,-78.125
-0.377,-0.405,0.957,-13.245,-36.316,-84.900
-0.195,-0.689,0.934,-25.391,-40.649,-75.378
-0.097,-0.897,0.896,-29.907,-40.955,-55.054
-0.072,-0.953,0.843,-26.306,-36.133,-31.006
-0.131,-0.898,0.780,-15.625,-28.442,-8.789
-0.290,-0.747,0.709,1.404,-21.729,6.042
-0.473,-0.603,0.648,21.912,-17.151,12.573
-0.647,-0.454,0.618,39.612,-16.174,12.146
-0.805,-0.280,0.599,53.040,-20.813,9.460
-0.927,-0.156,0.601,57.495,-29.480,8.789
-1.023,-0.042,0.610,53.284,-40.466,7.996
-1.101,0.039,0.626,46.387,-53.833,4.639
-1.169,0.067,0.639,39.368,-70.007,-0.854
-1.219,0.039,0.649,30.334,-87.952,-4.883
-1.232,0.020,0.674,17.761,-103.821,-6.226
-1.193,0.022,0.704,3.601,-115.784,-5.981
-1.171,0.040,0.727,-5.676,-123.474,-9.827
-1.185,0.044,0.739,-9.766,-127.869,-18.494
-1.232,0.052,0.744,-12.634,-128.296,-31.677
-1.305,0.064,0.755,-14.465,-129.028,-47.974
-1.384,0.086,0.779,-16.235,-131.531,-63.843
-1.425,0.108,0.827,-21.545,-135.742,-75.439
-1.464,0.145,0.876,-32.532,-143.616,-82.947
-1.501,0.179,0.934,-48.157,-154.785,-86.975
-1.536,0.196,0.986,-67.444,-166.382,-87.891
-1.565,0.214,1.052,-85.205,-176.636,-89.722
-1.557,0.232,1.131,-98.511,-184.570,-95.642
-1.534,0.222,1.222,-107.727,-190.491,-106.201
-1.521,0.196,1.283,-115.356,-194.519,-117.065
-1.554,0.194,1.323,-122.681,-195.801,-126.953
-1.587,0.179,1.315,-128.662,-192.993,-136.719
-1.619,0.163,1.305,-132.568,-187.195,-147.400
-1.659,0.156,1.296,-135.620,-181.763,-160.095
-1.697,0.139,1.293,-137.146,-179.321,-172.668
-1.717,0.119,1.312,-141.968,-177.185,-180.054
-1.764,0.160,1.339,-149.719,-177.612,-186.829
-1.782,0.190,1.367,-155.579,-176.758,-187.439
-1.798,0.212,1.391,-166.687,-177.429,-184.143
-1.801,0.279,1.406,-178.772,-176.208,-183.838
-1.784,0.325,1.401,-188.171,-172.852,-187.561
-1.723,0.301,1.405,-193.481,-164.612,-198.425
-1.633,0.288,1.396,-198.669,-153.748,-217.590
-1.593,0.266,1.350,-202.942,-141.357,-239.685
-1.606,0.254,1.266,-206.421,-126.038,-259.094
-1.624,0.226,1.181,-208.435,-109.436,-276.855
-1.701,0.187,1.103,-206.970,-98.999,-296.326
-1.763,0.185,1.014,-203.430,-94.055,-310.303
-1.757,0.158,0.951,-203.064,-91.064,-313.049
-1.735,0.128,0.875,-204.834,-90.881,-308.105
-1.687,0.157,0.809,-204.346,-93.201,-300.476
-1.627,0.194,0.761,-201.660,-95.337,-290.710
-1.534,0.247,0.727,-200.684,-95.032,-280.945
-1.437,0.304,0.689,-202.393,-91.736,-276.184
-1.363,0.313,0.622,-202.820,-87.585,-277.893
-1.301,0.245,0.523,-202.271,-82.947,-284.973
-1.242,0.173,0.458,-194.275,-78.125,-299.133
-1.161,0.164,0.415,-180.420,-69.580,-311.401
-1.103,0.219,0.388,-168.762,-57.251,-314.392
-1.058,0.288,0.332,-161.621,-45.288,-315.613
-1.063,0.317,0.276,-158.447,-35.950,-319.214
-1.096,0.359,0.199,-157.593,-29.602,-323.303
-1.131,0.348,0.102,-158.386,-24.475,-324.280
-1.169,0.364,0.024,-159.363,-22.522,-325.562
-1.160,0.351,-0.047,-160.767,-25.391,-326.843
-1.137,0.252,-0.127,-162.842,-33.936,-324.890
-1.028,0.163,-0.171,-165.039,-43.945,-319.519
-0.864,0.089,-0.177,-166.870,-51.575,-309.021

-1.190,0.759,0.979,183.899,31.189,231.995
-1.123,0.869,0.991,145.508,19.043,245.361
-1.050,0.863,1.004,111.816,11.353,243.408
-0.977,0.765,0.992,87.219,10.681,232.117
-0.864,0.600,0.968,73.303,19.470,218.933
-0.740,0.378,0.958,73.059,37.170,201.294
-0.679,0.191,0.958,91.370,61.218,179.932
-0.708,0.100,0.971,122.070,87.219,160.583
-0.826,0.094,0.983,153.137,109.192,150.818
-0.947,0.171,1.008,178.406,125.732,149.902
-1.032,0.365,1.086,198.059,136.536,149.109
-1.120,0.587,1.148,208.252,137.817,146.484
-1.187,0.724,1.151,199.768,131.653,146.851
-1.179,0.802,1.194,179.077,121.338,145.447
-1.150,0.806,1.215,155.823,107.727,142.944
-1.073,0.849,1.222,125.000,98.206,141.602
-0.979,0.775,1.254,99.304,94.238,138.000
-0.875,0.683,1.282,78.369,95.459,132.568
-0.830,0.624,1.265,56.091,97.168,127.930
-0.825,0.503,1.242,43.152,103.760,124.207
-0.888,0.425,1.188,36.987,108.398,121.399
-1.029,0.369,1.125,37.537,105.469,121.765
-1.174,0.350,1.066,37.415,97.961,127.319
-1.223,0.350,1.015,34.424,89.539,138.306
-1.210,0.352,0.978,29.602,81.421,152.771
-1.139,0.366,0.961,24.597,77.209,164.429
-1.030,0.370,0.948,23.132,80.444,165.527
-0.929,0.330,0.935,30.396,90.820,152.710
-0.888,0.314,0.925,43.945,103.882,130.981
-0.879,0.207,0.877,54.993,117.432,112.000
-0.900,0.114,0.812,62.988,130.371,94.360
-0.976,0.030,0.741,75.562,135.437,80.505
-0.985,-0.020,0.724,86.975,136.475,72.876
-0.976,-0.041,0.742,94.116,132.141,72.693
-0.983,-0.048,0.765,97.046,121.948,78.186
-0.996,-0.021,0.792,95.459,110.107,87.952
-1.003,0.010,0.811,91.248,96.741,98.328
-0.979,-0.005,0.833,85.754,84.351,105.774
-0.908,0.009,0.922,80.750,78.003,108.459
-0.810,0.071,1.017,80.017,78.125,107.483
-0.682,0.102,1.116,80.078,85.632,101.929
-0.581,0.172,1.220,81.055,96.130,95.642
-0.628,0.147,1.276,77.026,106.567,95.276
-0.566,0.188,1.324,65.063,120.605,85.022
-0.525,0.266,1.332,49.927,131.226,70.862
-0.583,0.286,1.317,33.813,135.986,65.918
-0.681,0.269,1.279,13.000,137.756,67.444
-0.837,0.287,1.145,-11.902,128.418,72.449
-0.986,0.285,1.018,-35.400,107.300,81.055
-1.031,0.266,0.899,-62.439,83.252,93.994
-1.031,0.274,0.799,-86.609,57.495,106.873
-1.023,0.301,0.750,-105.164,33.386,112.244
-0.921,0.321,0.761,-115.662,16.968,105.591
-0.764,0.281,0.826,-113.342,6.592,85.693
-0.606,0.219,0.891,-104.858,2.686,61.035
-0.414,0.149,0.982,-96.008,7.202,37.292
-0.223,0.094,1.073,-87.402,19.531,14.343
-0.050,0.032,1.157,-75.623,36.560,-7.446
0.046,0.000,1.215,-64.453,55.298,-26.978
0.053,-0.028,1.216,-58.105,73.975,-40.527
-0.032,-0.076,1.106,-55.542,86.792,-48.889
-0.131,-0.143,0.989,-52.002,89.783,-52.551
-0.215,-0.199,0.904,-48.645,84.656,-46.143
-0.261,-0.208,0.837,-49.255,74.585,-28.809
-0.262,-0.169,0.819,-52.490,63.293,-7.874
-0.263,-0.056,0.868,-55.298,51.331,8.667
-0.240,0.068,0.926,-58.044,41.687,18.494
-0.191,0.113,0.985,-61.462,36.743,20.630
-0.153,0.135,1.016,-63.110,36.011,15.564
-0.111,0.150,1.039,-60.547,40.894,8.118
-0.069,0.186,1.048,-55.176,48.157,-0.793
-0.060,0.203,1.049,-48.828,54.138,-11.475
-0.051,0.205,0.997,-43.152,57.495,-23.193
-0.098,0.188,0.933,-36.621,52.917,-35.034
-0.146,0.191,0.892,-32.166,42.969,-39.612
-0.143,0.135,0.885,-31.738,33.264,-36.682
-0.105,0.101,0.864,-33.508,25.024,-31.433
-0.071,0.057,0.824,-33.386,17.883,-29.419
-0.081,0.003,0.807,-27.222,10.559,-31.128
-0.096,-0.029,0.803,-17.883,3.662,-32.898
-0.091,-0.005,0.817,-10.498,-1.282,-30.396
-0.046,0.010,0.876,-8.057,-5.981,-23.437
0.013,0.111,0.942,-11.963,-12.878,-16.235
0.052,0.141,0.986,-13.733,-11.780,-14.771
0.074,0.125,1.003,-11.169,-7.446,-18.494
0.082,0.092,0.991,-9.766,-2.930,-23.315
0.019,0.095,0.957,-10.559,0.244,-23.682
-0.014,0.099,0.941,-10.742,0.793,-19.775
-0.027,0.101,0.929,-10.925,-0.854,-15.991
-0.017,0.124,0.933,-11.414,-2.319,-15.747
-0.007,0.109,0.947,-8.606,-2.808,-19.531
0.018,0.088,0.945,-3.784,-1.282,-25.269
0.015,0.068,0.945,0.488,0.427,-30.029
-0.003,0.058,0.936,3.479,1.160,-31.494
-0.015,0.055,0.939,5.554,1.404,-30.396
0.002,0.022,0.939,6.592,1.038,-28.381
0.007,0.005,0.942,5.981,-0.671,-24.414
0.013,-0.025,0.938,6.714,-1.892,-18.799
0.002,-0.039,0.935,7.446,-3.845,-13.245
0.002,-0.031,0.947,9.216,-4.089,-10.681
0.027,0.006,0.975,13.489,-3.235,-11.963
0.030,0.040,0.993,17.883,-1.709,-15.198
0.030,0.052,1.002,22.034,-0.854,-20.081
-0.003,0.027,0.995,25.940,0.244,-23.804
-0.004,-0.018,0.971,24.536,1.465,-22.583
-0.053,-0.007,0.942,22.278,1.038,-20.752
-0.061,-0.008,0.935,24.475,1.221,-18.250
-0.081,0.001,0.924,26.917,-0.244,-15.686
-0.092,0.016,0.923,28.503,-1.282,-13.672
-0.103,0.008,0.909,28.748,-3.052,-13.245
-0.139,0.018,0.921,29.541,-4.883,-15.320
-0.156,0.049,0.952,32.898,-4.456,-17.700
-0.150,0.099,0.994,34.180,-3.418,-17.029
-0.124,0.132,1.023,29.175,-2.258,-14.526
-0.096,0.111,1.034,22.400,-0.244,-14.282
-0.086,0.068,1.015,16.968,2.747,-15.381
-0.082,0.025,0.995,12.878,5.005,-14.954
-0.079,-0.018,0.976,9.705,5.432,-12.695
-0.084,-0.055,0.958,8.789,4.822,-10.742

0.020,0.289,0.737,-52.917,18.738,-18.677
-0.169,0.204,0.417,-105.713,-26.978,0.427
-0.112,-0.253,1.132,-45.288,-23.437,-3.540
-0.173,-0.123,0.888,-63.660,23.132,8.545
-0.093,-0.048,1.058,-45.776,40.344,10.071
-0.084,-0.096,1.000,-34.424,52.063,10.315
-0.056,-0.125,1.019,-27.283,60.486,9.583
-0.021,-0.055,1.097,-23.437,52.551,2.014
-0.023,-0.000,1.129,-14.282,36.926,-8.179
-0.138,0.000,1.016,0.610,20.996,-9.399
-0.102,-0.026,1.004,7.935,13.611,-8.179
-0.141,0.000,0.978,10.498,11.230,-15.137
-0.158,0.006,0.959,10.620,6.287,-16.968
-0.164,0.007,0.958,9.766,7.751,-11.658
-0.143,0.001,0.957,6.042,5.981,-5.554
-0.156,-0.012,0.954,2.136,3.418,-3.235
-0.107,0.001,0.982,2.441,4.333,-3.723
-0.097,0.018,0.948,3.479,7.935,-2.136
-0.062,-0.016,0.938,5.188,14.038,0.183
-0.059,-0.053,0.971,3.540,18.066,2.502
-0.102,-0.007,0.986,-1.099,12.146,2.441
-0.080,-0.013,1.000,-0.427,10.071,2.563
-0.077,-0.023,0.989,1.343,6.958,2.625
-0.087,-0.019,0.970,1.404,2.686,2.014
0.023,-0.024,0.998,0.610,1.282,2.686
-0.048,0.001,0.912,-0.549,-1.221,4.272
-0.121,-0.017,0.909,-1.770,7.874,6.348
-0.166,-0.023,0.994,-1.709,20.447,4.517
-0.128,-0.012,1.021,-0.916,22.888,0.793
-0.111,0.006,1.019,1.709,14.893,-2.380
-0.081,-0.035,0.959,3.784,5.188,0.305
-0.060,-0.035,0.969,2.563,2.808,-0.488
-0.122,-0.005,0.959,1.404,3.052,-2.258
-0.163,0.013,0.930,4.395,9.949,-4.272
-0.165,0.011,0.899,8.606,23.437,-5.249
-0.130,-0.047,0.888,10.254,40.466,-3.418
-0.106,-0.058,0.887,7.568,55.420,-3.235
-0.100,-0.063,0.866,0.916,65.369,-3.784
-0.092,-0.036,0.882,-5.554,78.918,-5.859
-0.129,-0.042,0.937,-10.193,93.201,-7.019
0.264,0.024,1.847,-14.709,105.957,-7.324
-0.072,-0.475,1.010,15.930,44.800,-17.151
0.052,-0.165,0.886,4.028,5.493,-45.105
-0.058,0.073,0.839,-12.695,-6.104,-47.668
0.180,0.010,0.929,4.639,8.545,-32.410
0.009,0.084,0.973,3.662,6.348,-14.099
-0.117,0.011,0.978,2.747,2.991,-1.160
-0.018,0.003,0.967,2.869,2.625,3.479
-0.019,0.093,0.973,2.686,2.380,5.249
-0.033,0.099,0.966,2.380,1.587,11.108
-0.050,0.097,0.973,2.380,1.831,16.418
-0.034,-0.025,0.946,3.052,3.723,16.724
0.002,0.015,1.031,2.747,1.282,12.085
-0.065,-0.123,0.972,2.747,3.113,9.216
-0.026,-0.163,0.977,3.479,4.333,-14.587
0.002,-0.074,1.039,2.441,3.113,-36.194
-0.017,-0.104,0.978,1.648,2.136,-42.908
-0.083,-0.173,0.943,2.258,3.784,-27.039
-0.151,-0.073,1.008,3.296,3.052,7.874
-0.097,-0.001,1.027,2.930,2.258,24.231
0.019,0.078,0.999,2.197,1.282,2.686
0.079,0.026,0.975,2.197,3.906,-19.470
0.106,0.007,1.003,2.563,1.770,-24.902
0.106,-0.020,0.883,2.930,3.601,-18.982
0.111,0.014,0.935,2.197,3.418,-10.742
0.022,0.013,0.984,1.709,1.892,-3.357
-0.006,-0.013,0.974,2.563,2.563,1.587
-0.007,-0.012,0.975,2.747,2.686,2.197
-0.010,-0.010,0.979,2.869,2.747,2.197
-0.006,-0.013,0.975,2.747,2.869,2.197
-0.009,-0.010,0.978,2.625,2.869,2.319
-0.006,-0.012,0.972,2.625,2.686,2.258
-0.008,-0.011,0.977,2.625,2.808,2.258
-0.006,-0.012,0.974,2.869,2.747,2.258
-0.008,-0.012,0.974,2.747,2.747,2.197
-0.007,-0.011,0.974,2.563,2.686,2.258
-0.007,-0.012,0.974,2.808,2.686,2.136
-0.006,-0.011,0.974,2.930,2.747,2.136
-0.007,-0.011,0.973,2.808,2.625,2.014
-0.007,-0.012,0.974,2.686,2.686,2.197
-0.007,-0.012,0.973,2.747,2.686,2.197
-0.007,-0.012,0.974,2.686,2.808,2.197
-0.006,-0.012,0.974,2.686,2.686,2.197
-0.007,-0.012,0.974,2.563,2.808,2.380
-0.007,-0.012,0.974,2.869,2.747,2.441
-0.007,-0.013,0.975,2.625,2.747,2.258
-0.007,-0.011,0.974,2.441,2.686,2.136
-0.007,-0.012,0.974,2.502,2.686,2.258
-0.007,-0.012,0.974,2.625,2.747,2.136
-0.006,-0.013,0.973,2.563,2.747,2.197
-0.007,-0.013,0.975,2.625,2.747,2.197
-0.006,-0.012,0.974,2.747,2.808,2.258
-0.007,-0.012,0.974,2.686,2.808,2.319
-0.006,-0.011,0.974,2.625,2.869,2.319
-0.006,-0.012,0.974,2.625,2.869,2.258
-0.007,-0.011,0.974,2.625,2.869,2.319
-0.008,-0.012,0.974,2.563,2.747,2.197
-0.008,-0.012,0.974,2.563,2.625,2.197
-0.007,-0.011,0.974,2.625,2.808,2.136
-0.007,-0.011,0.974,2.686,2.686,2.258
-0.008,-0.012,0.973,2.686,2.686,2.258
-0.008,-0.011,0.974,2.686,2.563,2.258
-0.007,-0.011,0.974,2.808,2.686,2.197
-0.007,-0.012,0.974,2.747,2.686,2.197
-0.007,-0.012,0.974,2.625,2.686,2.136
-0.007,-0.012,0.974,2.747,2.747,2.136
-0.008,-0.012,0.974,2.747,2.808,2.197
-0.007,-0.012,0.974,2.686,2.747,2.258
-0.006,-0.012,0.974,2.686,2.686,2.075
-0.006,-0.013,0.974,2.502,2.686,2.136
-0.007,-0.012,0.974,2.502,2.747,2.258
-0.007,-0.012,0.974,2.625,2.686,2.319
-0.007,-0.013,0.974,2.747,2.625,2.136
-0.007,-0.012,0.974,2.441,2.625,2.197
-0.007,-0.012,0.974,2.625,2.808,2.258
-0.007,-0.012,0.974,2.625,2.747,2.258
-0.007,-0.012,0.974,2.563,2.686,2.136
-0.007,-0.012,0.974,2.625,2.808,2.136
-0.007,-0.012,0.974,2.747,2.808,2.136


